trials_practice.thisRepN,trials_practice.thisTrialN,trials_practice.thisN,trials_practice.thisIndex,repeat_last_practice.thisRepN,repeat_last_practice.thisTrialN,repeat_last_practice.thisN,repeat_last_practice.thisIndex,trials_trial.thisRepN,trials_trial.thisTrialN,trials_trial.thisN,trials_trial.thisIndex,repeat_last_trial.thisRepN,repeat_last_trial.thisTrialN,repeat_last_trial.thisN,repeat_last_trial.thisIndex,thisRow.t,notes,instruction.started,text.started,key_resp.started,instruction.stopped,key_resp.keys,key_resp.rt,key_resp.duration,Practice_ITI.started,practice_iti_500.started,Practice_ITI.stopped,sqr_practice.started,fix_cross.started,sqr1.started,sqr2.started,sqr3.started,sqr4.started,sqr_practice.stopped,fixation.started,fix.started,fixation.stopped,square_ident.started,fix_cross2.started,sqr_ident_1.started,sqr_ident_2.started,sqr_ident_3.started,sqr_ident_4.started,square_ident.stopped,response_accuracy,pause_practice.started,next_round_text.started,repeat_cross.started,pause_practice.stopped,start_test.started,starting_test.started,beginn_test.started,start_test.stopped,beginn_test.keys,beginn_test.rt,beginn_test.duration,sqr_trial.started,fix_cross_trial.started,sqr1_trial.started,sqr2_trial.started,sqr3_trial.started,sqr4_trial.started,sqr_trial.stopped,fixation_trial.started,fix_cross5.started,fixation_trial.stopped,sqr_ident_trial.started,fix_cross_4.started,sqr_ident_1_trial.started,sqr_ident_2_trial.started,sqr_ident_3_trial.started,sqr_ident_4_trial.started,sqr_ident_trial.stopped,pause_trial.started,next_round_text_trial.started,repeat_trial_cross.started,pause_trial.stopped,label_square,next_round_text_trial.stopped,repeat_trial_cross.stopped,fix_cross5.stopped,goodbye.started,goodbye_text.started,end_experiment.started,goodbye.stopped,end_experiment.keys,end_experiment.rt,end_experiment.duration,participant,session,date,expName,psychopyVersion,frameRate,expStart,
,,,,,,,,,,,,,,,,,,0.01394095501746051,0.026948059006826952,0.026948059006826952,4.76591608801391,right,4.7332569300197065,None,,,,,,,,,,,,,,,,,,,,,,,,,,,,,,,,,,,,,,,,,,,,,,,,,,,,,,,,,,,,,,,,,479072,001,2024-04-05_17h56.15.746,smts,2023.2.3,119.94064713525032,2024-04-05 17h57.06.184538 +0200,
,,,,,,,,,,,,,,,,57.53556085299351,,,,,,,,,4.765943184000207,4.795877732016379,5.27562356099952,57.517239594017155,57.53556085299351,57.53556085299351,57.53556085299351,57.53556085299351,57.53556085299351,57.613346582016675,57.61337415300659,57.62476127099944,58.51485509501072,58.514886877004756,58.92814812102006,58.92814812102006,58.92814812102006,58.92814812102006,58.92814812102006,59.7683058459952,Correct,59.768391916994005,59.77807372101233,59.77807372101233,61.2747333960142,61.27484340101364,61.28084888801095,61.28084888801095,71.11492545099463,s,9.832346631999826,None,,,,,,,,,,,,,,,,,,,,,,,,,,,,,,,,,479072,001,2024-04-05_17h56.15.746,smts,2023.2.3,119.94064713525032,2024-04-05 17h57.06.184538 +0200,
,,,,,,,,0,0,0,0,0,0,0,0,71.1401348230138,,,,,,,,,,,,,,,,,,,,,,,,,,,,,Correct,,,,,,,,,,,,71.11712065301253,71.1401348230138,71.1401348230138,71.1401348230138,71.1401348230138,71.1401348230138,71.218935212004,71.2189541090047,71.22441874700598,72.12469121499453,72.12472008101759,72.14217254999676,72.14217254999676,72.14217254999676,72.14217254999676,72.14217254999676,73.34503049901105,73.34526563301915,73.35873665599502,73.35873665599502,74.84842161799315,,,,,,,,,,,,479072,001,2024-04-05_17h56.15.746,smts,2023.2.3,119.94064713525032,2024-04-05 17h57.06.184538 +0200,
,,,,,,,,0,0,0,0,,,,,,,,,,,,,,,,,,,,,,,,,,,,,,,,,,,,,,,,,,,,,,,,,,,,,,,,,,,,,,,,,,,,,,,,,,,,,,479072,001,2024-04-05_17h56.15.746,smts,2023.2.3,119.94064713525032,2024-04-05 17h57.06.184538 +0200,
,,,,,,,,1,0,1,0,0,0,0,0,74.86601501100813,,,,,,,,,,,,,,,,,,,,,,,,,,,,,,,,,,,,,,,,,74.85055154201109,74.86601501100813,74.86601501100813,74.86601501100813,74.86601501100813,74.86601501100813,74.95154590401216,74.95157252400531,74.95846767700277,75.84792657801881,75.84796672701486,75.86640035701566,75.86640035701566,75.86640035701566,75.86640035701566,75.86640035701566,77.42533118301071,77.42546729501919,77.43597418401623,77.43597418401623,78.93130359199131,,,,,,,,,,,,479072,001,2024-04-05_17h56.15.746,smts,2023.2.3,119.94064713525032,2024-04-05 17h57.06.184538 +0200,
,,,,,,,,1,0,1,0,1,0,1,0,78.94779235601891,,,,,,,,,,,,,,,,,,,,,,,,,,,,,Correct,,,,,,,,,,,,78.93181560200173,78.94779235601891,78.94779235601891,78.94779235601891,78.94779235601891,78.94779235601891,79.02892113800044,79.02894799099886,79.04104616801487,79.93115347399726,79.93118801701348,79.94940337899607,79.94940337899607,79.94940337899607,79.94940337899607,79.94940337899607,80.94599567301339,80.94612860900816,80.95834530700813,80.95834530700813,82.44836685899645,,,,,,,,,,,,479072,001,2024-04-05_17h56.15.746,smts,2023.2.3,119.94064713525032,2024-04-05 17h57.06.184538 +0200,
,,,,,,,,1,0,1,0,,,,,,,,,,,,,,,,,,,,,,,,,,,,,,,,,,,,,,,,,,,,,,,,,,,,,,,,,,,,,,,,,,,,,,,,,,,,,,479072,001,2024-04-05_17h56.15.746,smts,2023.2.3,119.94064713525032,2024-04-05 17h57.06.184538 +0200,
,,,,,,,,2,0,2,0,0,0,0,0,82.46459049501573,,,,,,,,,,,,,,,,,,,,,,,,,,,,,,,,,,,,,,,,,82.44989886900294,82.46459049501573,82.46459049501573,82.46459049501573,82.46459049501573,82.46459049501573,82.54997027799254,82.54998671499197,82.55828533999738,83.44833581501734,83.44835449301172,83.46534562401939,83.46534562401939,83.46534562401939,83.46534562401939,83.46534562401939,90.74666637001792,90.74678902499727,90.75724479401833,90.75724479401833,92.24816993900458,,,,,,,,,,,,479072,001,2024-04-05_17h56.15.746,smts,2023.2.3,119.94064713525032,2024-04-05 17h57.06.184538 +0200,
,,,,,,,,2,0,2,0,1,0,1,0,92.26521252500243,,,,,,,,,,,,,,,,,,,,,,,,,,,,,Correct,,,,,,,,,,,,92.24868238301133,92.26521252500243,92.26521252500243,92.26521252500243,92.26521252500243,92.26521252500243,92.35305570601486,92.35308390701539,92.36061557699577,93.24762981801177,93.24767155799782,93.26585371600231,93.26585371600231,93.26585371600231,93.26585371600231,93.26585371600231,95.67474060101085,95.67499398600194,95.6881408750196,95.6881408750196,97.18147934600711,,,,,,,,,,,,479072,001,2024-04-05_17h56.15.746,smts,2023.2.3,119.94064713525032,2024-04-05 17h57.06.184538 +0200,
,,,,,,,,2,0,2,0,,,,,,,,,,,,,,,,,,,,,,,,,,,,,,,,,,,,,,,,,,,,,,,,,,,,,,,,,,,,,,,,,,,,,,,,,,,,,,479072,001,2024-04-05_17h56.15.746,smts,2023.2.3,119.94064713525032,2024-04-05 17h57.06.184538 +0200,
,,,,,,,,3,0,3,0,0,0,0,0,97.19871589599643,,,,,,,,,,,,,,,,,,,,,,,,,,,,,,,,,,,,,,,,,97.18354991899105,97.19871589599643,97.19871589599643,97.19871589599643,97.19871589599643,97.19871589599643,97.2782666030107,97.278286818997,97.29089196800487,98.18113804599852,98.18117733899271,98.19950823500403,98.19950823500403,98.19950823500403,98.19950823500403,98.19950823500403,101.00081559401588,101.00092562299687,101.01210439001443,101.01210439001443,102.507638125011,,,,,,,,,,,,479072,001,2024-04-05_17h56.15.746,smts,2023.2.3,119.94064713525032,2024-04-05 17h57.06.184538 +0200,
,,,,,,,,3,0,3,0,1,0,1,0,102.52481380201061,,,,,,,,,,,,,,,,,,,,,,,,,,,,,Correct,,,,,,,,,,,,102.50811048600008,102.52481380201061,102.52481380201061,102.52481380201061,102.52481380201061,102.52481380201061,102.6012548180006,102.6012744269974,102.6081221740169,103.50767522701062,103.50770631400519,103.5257553140109,103.5257553140109,103.5257553140109,103.5257553140109,103.5257553140109,107.67449224201846,107.67480042600073,107.68862691899994,107.68862691899994,109.18140179500915,,,,,,,,,,,,479072,001,2024-04-05_17h56.15.746,smts,2023.2.3,119.94064713525032,2024-04-05 17h57.06.184538 +0200,
,,,,,,,,3,0,3,0,,,,,,,,,,,,,,,,,,,,,,,,,,,,,,,,,,,,,,,,,,,,,,,,,,,,,,,,,,,,,,,,,,,,,,,,,,,,,,479072,001,2024-04-05_17h56.15.746,smts,2023.2.3,119.94064713525032,2024-04-05 17h57.06.184538 +0200,
,,,,,,,,4,0,4,0,0,0,0,0,109.19868169201072,,,,,,,,,,,,,,,,,,,,,,,,,,,,,Correct,,,,,,,,,,,,109.18347121501574,109.19868169201072,109.19868169201072,109.19868169201072,109.19868169201072,109.19868169201072,109.27797168502002,109.2779967180104,109.29131695601973,110.18036142701749,110.1803931860195,110.19534453499364,110.19534453499364,110.19534453499364,110.19534453499364,110.19534453499364,111.79125716301496,111.7913639100152,111.80063395301113,111.80063395301113,113.29737645000569,Locat_Change,,,,,,,,,,,479072,001,2024-04-05_17h56.15.746,smts,2023.2.3,119.94064713525032,2024-04-05 17h57.06.184538 +0200,
,,,,,,,,4,0,4,0,,,,,,,,,,,,,,,,,,,,,,,,,,,,,,,,,,,,,,,,,,,,,,,,,,,,,,,,,,,,,,,,,,,,,,,,,,,,,,479072,001,2024-04-05_17h56.15.746,smts,2023.2.3,119.94064713525032,2024-04-05 17h57.06.184538 +0200,
,,,,,,,,5,0,5,0,0,0,0,0,113.31523539801128,,,,,,,,,,,,,,,,,,,,,,,,,,,,,Correct,,,,,,,,,,,,113.299457540008,113.31523539801128,113.31523539801128,113.31523539801128,113.31523539801128,113.31523539801128,113.39405573901604,113.39408432599157,113.40723893800168,114.29737515799934,114.29741402901709,114.31498564101639,114.31498564101639,114.31498564101639,114.31498564101639,114.31498564101639,119.94433845000458,119.94446873301058,119.95751177400234,119.95751177400234,121.44837281201035,,,,,,,,,,,,479072,001,2024-04-05_17h56.15.746,smts,2023.2.3,119.94064713525032,2024-04-05 17h57.06.184538 +0200,
,,,,,,,,5,0,5,0,,,,,,,,,,,,,,,,,,,,,,,,,,,,,,,,,,,,,,,,,,,,,,,,,,,,,,,,,,,,,,,,,,,,,,,,,,,,,,479072,001,2024-04-05_17h56.15.746,smts,2023.2.3,119.94064713525032,2024-04-05 17h57.06.184538 +0200,
,,,,,,,,6,0,6,0,0,0,0,0,121.46598126500612,,,,,,,,,,,,,,,,,,,,,,,,,,,,,Incorrect,,,,,,,,,,,,121.45044534699991,121.46598126500612,121.46598126500612,121.46598126500612,121.46598126500612,121.46598126500612,121.545466629992,121.54549648199463,121.55724474601448,122.44738165699528,122.44741753899143,122.46591185199213,122.46591185199213,122.46591185199213,122.46591185199213,122.46591185199213,124.25788350100629,124.2579959279974,124.26742228699732,124.26742228699732,125.76432272401871,,,,,,,,,,,,479072,001,2024-04-05_17h56.15.746,smts,2023.2.3,119.94064713525032,2024-04-05 17h57.06.184538 +0200,
,,,,,,,,6,0,6,0,,,,,,,,,,,,,,,,,,,,,,,,,,,,,,,,,,,,,,,,,,,,,,,,,,,,,,,,,,,,,,,,,,,,,,,,,,,,,,479072,001,2024-04-05_17h56.15.746,smts,2023.2.3,119.94064713525032,2024-04-05 17h57.06.184538 +0200,
,,,,,,,,7,0,7,0,0,0,0,0,125.7821356060158,,,,,,,,,,,,,,,,,,,,,,,,,,,,,Correct,,,,,,,,,,,,125.76640049001435,125.7821356060158,125.7821356060158,125.7821356060158,125.7821356060158,125.7821356060158,125.86092721499153,125.86095478301286,125.87382050100132,126.76432691901573,126.76436563601601,126.78237725101644,126.78237725101644,126.78237725101644,126.78237725101644,126.78237725101644,127.6516199260077,127.65177297900664,127.6619923080143,127.6619923080143,129.15793445700547,,,,,,,,,,,,479072,001,2024-04-05_17h56.15.746,smts,2023.2.3,119.94064713525032,2024-04-05 17h57.06.184538 +0200,
,,,,,,,,7,0,7,0,,,,,,,,,,,,,,,,,,,,,,,,,,,,,,,,,,,,,,,,,,,,,,,,,,,,,,,,,,,,,,,,,,,,,,,,,,,,,,479072,001,2024-04-05_17h56.15.746,smts,2023.2.3,119.94064713525032,2024-04-05 17h57.06.184538 +0200,
,,,,,,,,8,0,8,0,0,0,0,0,129.17449458499323,,,,,,,,,,,,,,,,,,,,,,,,,,,,,Incorrect,,,,,,,,,,,,129.15996349600027,129.17449458499323,129.17449458499323,129.17449458499323,129.17449458499323,129.17449458499323,129.25735792101477,129.25738737601205,129.26360748900333,130.15738191601122,130.15739575200132,130.17125411800225,130.17125411800225,130.17125411800225,130.17125411800225,130.17125411800225,132.56060963499476,132.56078782799887,132.5741598099994,132.5741598099994,134.0653370229993,Locat_Change,,,,,,,,,,,479072,001,2024-04-05_17h56.15.746,smts,2023.2.3,119.94064713525032,2024-04-05 17h57.06.184538 +0200,
,,,,,,,,8,0,8,0,,,,,,,,,,,,,,,,,,,,,,,,,,,,,,,,,,,,,,,,,,,,,,,,,,,,,,,,,,,,,,,,,,,,,,,,,,,,,,479072,001,2024-04-05_17h56.15.746,smts,2023.2.3,119.94064713525032,2024-04-05 17h57.06.184538 +0200,
,,,,,,,,9,0,9,0,0,0,0,0,134.0836417929968,,,,,,,,,,,,,,,,,,,,,,,,,,,,,Incorrect,,,,,,,,,,,,134.06743534299312,134.0836417929968,134.0836417929968,134.0836417929968,134.0836417929968,134.0836417929968,134.1621160900104,134.16214429901447,134.17364681101753,135.06387025499134,135.06391213499592,135.08240548201138,135.08240548201138,135.08240548201138,135.08240548201138,135.08240548201138,137.30762245200458,137.30773592900368,137.31717671599472,137.31717671599472,138.8086915689928,,,,,,,,,,,,479072,001,2024-04-05_17h56.15.746,smts,2023.2.3,119.94064713525032,2024-04-05 17h57.06.184538 +0200,
,,,,,,,,9,0,9,0,,,,,,,,,,,,,,,,,,,,,,,,,,,,,,,,,,,,,,,,,,,,,,,,,,,,,,,,,,,,,,,,,,,,,,,,,,,,,,479072,001,2024-04-05_17h56.15.746,smts,2023.2.3,119.94064713525032,2024-04-05 17h57.06.184538 +0200,
,,,,,,,,10,0,10,0,0,0,0,0,138.82556619599927,,,,,,,,,,,,,,,,,,,,,,,,,,,,,,,,,,,,,,,,,138.8109352250176,138.82556619599927,138.82556619599927,138.82556619599927,138.82556619599927,138.82556619599927,138.91715680802008,138.91717942300602,138.92427730400232,139.81384093599627,139.8138793160033,139.8320594340039,139.8320594340039,139.8320594340039,139.8320594340039,139.8320594340039,143.18507314499584,143.18522790601128,143.19589512899984,143.19589512899984,144.69027212599758,,,,,,,,,,,,479072,001,2024-04-05_17h56.15.746,smts,2023.2.3,119.94064713525032,2024-04-05 17h57.06.184538 +0200,
,,,,,,,,10,0,10,0,1,0,1,0,144.70530364199658,,,,,,,,,,,,,,,,,,,,,,,,,,,,,Correct,,,,,,,,,,,,144.6907682410092,144.70530364199658,144.70530364199658,144.70530364199658,144.70530364199658,144.70530364199658,144.79029193299357,144.79031385399867,144.79644206599914,145.69044542501797,145.6904760870093,145.70860877400264,145.70860877400264,145.70860877400264,145.70860877400264,145.70860877400264,147.05759941000724,147.0577264300082,147.06754386000102,147.06754386000102,148.56452949700179,,,,,,,,,,,,479072,001,2024-04-05_17h56.15.746,smts,2023.2.3,119.94064713525032,2024-04-05 17h57.06.184538 +0200,
,,,,,,,,10,0,10,0,,,,,,,,,,,,,,,,,,,,,,,,,,,,,,,,,,,,,,,,,,,,,,,,,,,,,,,,,,,,,,,,,,,,,,,,,,,,,,479072,001,2024-04-05_17h56.15.746,smts,2023.2.3,119.94064713525032,2024-04-05 17h57.06.184538 +0200,
,,,,,,,,11,0,11,0,0,0,0,0,148.58232598900213,,,,,,,,,,,,,,,,,,,,,,,,,,,,,,,,,,,,,,,,,148.5665734820068,148.58232598900213,148.58232598900213,148.58232598900213,148.58232598900213,148.58232598900213,148.66094367101323,148.66097056801664,148.67349269700935,149.56339144101366,149.5634292300092,149.58333398599643,149.58333398599643,149.58333398599643,149.58333398599643,149.58333398599643,152.1673591530125,152.16747241199482,152.17777204699814,152.17777204699814,153.6735018469917,Color_Change,,,,,,,,,,,479072,001,2024-04-05_17h56.15.746,smts,2023.2.3,119.94064713525032,2024-04-05 17h57.06.184538 +0200,
,,,,,,,,11,0,11,0,1,0,1,0,153.68974750401685,,,,,,,,,,,,,,,,,,,,,,,,,,,,,Correct,,,,,,,,,,,,153.67396552400896,153.68974750401685,153.68974750401685,153.68974750401685,153.68974750401685,153.68974750401685,153.7785182800144,153.77854731000843,153.79002156099887,154.67369250499178,154.67372097200132,154.69364442600636,154.69364442600636,154.69364442600636,154.69364442600636,154.69364442600636,157.7241913510079,157.72432185101206,157.73468219101778,157.73468219101778,159.2310353179928,Color_Change,,,,,,,,,,,479072,001,2024-04-05_17h56.15.746,smts,2023.2.3,119.94064713525032,2024-04-05 17h57.06.184538 +0200,
,,,,,,,,11,0,11,0,,,,,,,,,,,,,,,,,,,,,,,,,,,,,,,,,,,,,,,,,,,,,,,,,,,,,,,,,,,,,,,,,,,,,,,,,,,,,,479072,001,2024-04-05_17h56.15.746,smts,2023.2.3,119.94064713525032,2024-04-05 17h57.06.184538 +0200,
,,,,,,,,12,0,12,0,0,0,0,0,159.24816870799987,,,,,,,,,,,,,,,,,,,,,,,,,,,,,Incorrect,,,,,,,,,,,,159.2331103940087,159.24816870799987,159.24816870799987,159.24816870799987,159.24816870799987,159.24816870799987,159.3272767169983,159.3272961509938,159.33997122599976,160.2301989700063,160.2302380159963,160.2480418450141,160.2480418450141,160.2480418450141,160.2480418450141,160.2480418450141,163.88355742499698,163.8836705640133,163.89326977700694,163.89326977700694,165.39001683500828,,,,,,,,,,,,479072,001,2024-04-05_17h56.15.746,smts,2023.2.3,119.94064713525032,2024-04-05 17h57.06.184538 +0200,
,,,,,,,,12,0,12,0,,,,,,,,,,,,,,,,,,,,,,,,,,,,,,,,,,,,,,,,,,,,,,,,,,,,,,,,,,,,,,,,,,,,,,,,,,,,,,479072,001,2024-04-05_17h56.15.746,smts,2023.2.3,119.94064713525032,2024-04-05 17h57.06.184538 +0200,
,,,,,,,,13,0,13,0,0,0,0,0,165.40750298299827,,,,,,,,,,,,,,,,,,,,,,,,,,,,,Correct,,,,,,,,,,,,165.39211243300815,165.40750298299827,165.40750298299827,165.40750298299827,165.40750298299827,165.40750298299827,165.4907552060031,165.49077379601658,165.49632992400439,166.39011370099615,166.39014254201902,166.4083859389939,166.4083859389939,166.4083859389939,166.4083859389939,166.4083859389939,168.91114528899197,168.91125819500303,168.9237298789958,168.9237298789958,170.41418046801118,Locat_Change,,,,,,,,,,,479072,001,2024-04-05_17h56.15.746,smts,2023.2.3,119.94064713525032,2024-04-05 17h57.06.184538 +0200,
,,,,,,,,13,0,13,0,,,,,,,,,,,,,,,,,,,,,,,,,,,,,,,,,,,,,,,,,,,,,,,,,,,,,,,,,,,,,,,,,,,,,,,,,,,,,,479072,001,2024-04-05_17h56.15.746,smts,2023.2.3,119.94064713525032,2024-04-05 17h57.06.184538 +0200,
,,,,,,,,14,0,14,0,0,0,0,0,170.43142788801924,,,,,,,,,,,,,,,,,,,,,,,,,,,,,Correct,,,,,,,,,,,,170.41625289301737,170.43142788801924,170.43142788801924,170.43142788801924,170.43142788801924,170.43142788801924,170.52348402599455,170.52351102401735,170.53032310699928,171.4135034350038,171.4135396089987,171.43143274399335,171.43143274399335,171.43143274399335,171.43143274399335,171.43143274399335,172.49027774401475,172.49057836999418,172.50233220800874,172.50233220800874,173.996806990006,Locat_Change,,,,,,,,,,,479072,001,2024-04-05_17h56.15.746,smts,2023.2.3,119.94064713525032,2024-04-05 17h57.06.184538 +0200,
,,,,,,,,14,0,14,0,,,,,,,,,,,,,,,,,,,,,,,,,,,,,,,,,,,,,,,,,,,,,,,,,,,,,,,,,,,,,,,,,,,,,,,,,,,,,,479072,001,2024-04-05_17h56.15.746,smts,2023.2.3,119.94064713525032,2024-04-05 17h57.06.184538 +0200,
,,,,,,,,15,0,15,0,0,0,0,0,174.0142481040093,,,,,,,,,,,,,,,,,,,,,,,,,,,,,Correct,,,,,,,,,,,,173.99887535301968,174.0142481040093,174.0142481040093,174.0142481040093,174.0142481040093,174.0142481040093,174.09466989300563,174.0946969689976,174.10654401499778,174.99665888299933,174.9966990390094,175.0167016070045,175.0167016070045,175.0167016070045,175.0167016070045,175.0167016070045,176.01741713099182,176.01759361900622,176.02878861900535,176.02878861900535,177.52372789100627,Color_Change,,,,,,,,,,,479072,001,2024-04-05_17h56.15.746,smts,2023.2.3,119.94064713525032,2024-04-05 17h57.06.184538 +0200,
,,,,,,,,15,0,15,0,,,,,,,,,,,,,,,,,,,,,,,,,,,,,,,,,,,,,,,,,,,,,,,,,,,,,,,,,,,,,,,,,,,,,,,,,,,,,,479072,001,2024-04-05_17h56.15.746,smts,2023.2.3,119.94064713525032,2024-04-05 17h57.06.184538 +0200,
,,,,,,,,16,0,16,0,0,0,0,0,177.53849326699856,,,,,,,,,,,,,,,,,,,,,,,,,,,,,Correct,,,,,,,,,,,,177.52543909900123,177.53849326699856,177.53849326699856,177.53849326699856,177.53849326699856,177.53849326699856,177.62386198100285,177.62388021399966,177.62953276999178,178.52312442401308,178.52314900999772,178.53927028601174,178.53927028601174,178.53927028601174,178.53927028601174,178.53927028601174,179.94050496901036,179.94061745601357,179.95003114501014,179.95003114501014,181.4468600960099,,,,,,,,,,,,479072,001,2024-04-05_17h56.15.746,smts,2023.2.3,119.94064713525032,2024-04-05 17h57.06.184538 +0200,
,,,,,,,,16,0,16,0,,,,,,,,,,,,,,,,,,,,,,,,,,,,,,,,,,,,,,,,,,,,,,,,,,,,,,,,,,,,,,,,,,,,,,,,,,,,,,479072,001,2024-04-05_17h56.15.746,smts,2023.2.3,119.94064713525032,2024-04-05 17h57.06.184538 +0200,
,,,,,,,,17,0,17,0,0,0,0,0,181.46442583101452,,,,,,,,,,,,,,,,,,,,,,,,,,,,,Correct,,,,,,,,,,,,181.448935627006,181.46442583101452,181.46442583101452,181.46442583101452,181.46442583101452,181.46442583101452,181.54369794600643,181.54371741501382,181.5564258180093,182.44647075299872,182.44650973801618,182.46562828699825,182.46562828699825,182.46562828699825,182.46562828699825,182.46562828699825,183.52372070899582,183.52385380500345,183.53363335801987,183.53363335801987,185.03079053299734,Locat_Change,,,,,,,,,,,479072,001,2024-04-05_17h56.15.746,smts,2023.2.3,119.94064713525032,2024-04-05 17h57.06.184538 +0200,
,,,,,,,,17,0,17,0,,,,,,,,,,,,,,,,,,,,,,,,,,,,,,,,,,,,,,,,,,,,,,,,,,,,,,,,,,,,,,,,,,,,,,,,,,,,,,479072,001,2024-04-05_17h56.15.746,smts,2023.2.3,119.94064713525032,2024-04-05 17h57.06.184538 +0200,
,,,,,,,,18,0,18,0,0,0,0,0,185.04861179,,,,,,,,,,,,,,,,,,,,,,,,,,,,,Correct,,,,,,,,,,,,185.0329279229918,185.04861179,185.04861179,185.04861179,185.04861179,185.04861179,185.12711776199285,185.1271450399945,185.13961867100443,186.0296790499997,186.02971024400904,186.04543361801188,186.04543361801188,186.04543361801188,186.04543361801188,186.04543361801188,186.8335546570015,186.83377286500763,186.84563777100993,186.84563777100993,188.339735963993,,,,,,,,,,,,479072,001,2024-04-05_17h56.15.746,smts,2023.2.3,119.94064713525032,2024-04-05 17h57.06.184538 +0200,
,,,,,,,,18,0,18,0,,,,,,,,,,,,,,,,,,,,,,,,,,,,,,,,,,,,,,,,,,,,,,,,,,,,,,,,,,,,,,,,,,,,,,,,,,,,,,479072,001,2024-04-05_17h56.15.746,smts,2023.2.3,119.94064713525032,2024-04-05 17h57.06.184538 +0200,
,,,,,,,,19,0,19,0,0,0,0,0,188.35608099700767,,,,,,,,,,,,,,,,,,,,,,,,,,,,,Correct,,,,,,,,,,,,188.34182310299366,188.35608099700767,188.35608099700767,188.35608099700767,188.35608099700767,188.35608099700767,188.4437165140116,188.4437361950113,188.45629419901525,189.3399283500039,189.33995718101505,189.35809689899907,189.35809689899907,189.35809689899907,189.35809689899907,189.35809689899907,190.15006958600134,190.1502260650159,190.15975913300645,190.15975913300645,191.65635229900363,,,,,,,,,,,,479072,001,2024-04-05_17h56.15.746,smts,2023.2.3,119.94064713525032,2024-04-05 17h57.06.184538 +0200,
,,,,,,,,19,0,19,0,,,,,,,,,,,,,,,,,,,,,,,,,,,,,,,,,,,,,,,,,,,,,,,,,,,,,,,,,,,,,,,,,,,,,,,,,,,,,,479072,001,2024-04-05_17h56.15.746,smts,2023.2.3,119.94064713525032,2024-04-05 17h57.06.184538 +0200,
,,,,,,,,20,0,20,0,0,0,0,0,191.67374455500976,,,,,,,,,,,,,,,,,,,,,,,,,,,,,Correct,,,,,,,,,,,,191.65849087401875,191.67374455500976,191.67374455500976,191.67374455500976,191.67374455500976,191.67374455500976,191.75708360399585,191.757102603995,191.76273488401785,192.65642468701117,192.65644752501976,192.67433073499706,192.67433073499706,192.67433073499706,192.67433073499706,192.67433073499706,193.49032792099752,193.49045902999933,193.50068881799234,193.50068881799234,194.9974783330108,Color_Change,,,,,,,,,,,479072,001,2024-04-05_17h56.15.746,smts,2023.2.3,119.94064713525032,2024-04-05 17h57.06.184538 +0200,
,,,,,,,,20,0,20,0,,,,,,,,,,,,,,,,,,,,,,,,,,,,,,,,,,,,,,,,,,,,,,,,,,,,,,,,,,,,,,,,,,,,,,,,,,,,,,479072,001,2024-04-05_17h56.15.746,smts,2023.2.3,119.94064713525032,2024-04-05 17h57.06.184538 +0200,
,,,,,,,,21,0,21,0,0,0,0,0,195.01557217500522,,,,,,,,,,,,,,,,,,,,,,,,,,,,,Correct,,,,,,,,,,,,194.99950877201627,195.01557217500522,195.01557217500522,195.01557217500522,195.01557217500522,195.01557217500522,195.09351927399985,195.09353874699445,195.10611725400668,195.99592587500229,195.99596158601344,196.01435860301717,196.01435860301717,196.01435860301717,196.01435860301717,196.01435860301717,196.84967548199347,196.84983601400745,196.85946800300735,196.85946800300735,198.35671934401034,Locat_Change,,,,,,,,,,,479072,001,2024-04-05_17h56.15.746,smts,2023.2.3,119.94064713525032,2024-04-05 17h57.06.184538 +0200,
,,,,,,,,21,0,21,0,,,,,,,,,,,,,,,,,,,,,,,,,,,,,,,,,,,,,,,,,,,,,,,,,,,,,,,,,,,,,,,,,,,,,,,,,,,,,,479072,001,2024-04-05_17h56.15.746,smts,2023.2.3,119.94064713525032,2024-04-05 17h57.06.184538 +0200,
,,,,,,,,22,0,22,0,0,0,0,0,198.3698898869916,,,,,,,,,,,,,,,,,,,,,,,,,,,,,Incorrect,,,,,,,,,,,,198.35805889600306,198.3698898869916,198.3698898869916,198.3698898869916,198.3698898869916,198.3698898869916,198.4514743410109,198.45150531100808,198.45943117601564,199.3562358590134,199.35626427500392,199.37347678400693,199.37347678400693,199.37347678400693,199.37347678400693,199.37347678400693,200.38992430100916,200.3902408349968,200.40312988401274,200.40312988401274,201.89735279901652,,,,,,,,,,,,479072,001,2024-04-05_17h56.15.746,smts,2023.2.3,119.94064713525032,2024-04-05 17h57.06.184538 +0200,
,,,,,,,,22,0,22,0,,,,,,,,,,,,,,,,,,,,,,,,,,,,,,,,,,,,,,,,,,,,,,,,,,,,,,,,,,,,,,,,,,,,,,,,,,,,,,479072,001,2024-04-05_17h56.15.746,smts,2023.2.3,119.94064713525032,2024-04-05 17h57.06.184538 +0200,
,,,,,,,,23,0,23,0,0,0,0,0,201.9146162730176,,,,,,,,,,,,,,,,,,,,,,,,,,,,,Correct,,,,,,,,,,,,201.89943236799445,201.9146162730176,201.9146162730176,201.9146162730176,201.9146162730176,201.9146162730176,201.99256678600796,201.99258493600064,202.00604281100095,202.89611760800472,202.8961548320076,202.91540397700737,202.91540397700737,202.91540397700737,202.91540397700737,202.91540397700737,203.94953231001273,203.94971208000788,203.9606184340082,203.9606184340082,205.4567814390175,Color_Change,,,,,,,,,,,479072,001,2024-04-05_17h56.15.746,smts,2023.2.3,119.94064713525032,2024-04-05 17h57.06.184538 +0200,
,,,,,,,,23,0,23,0,,,,,,,,,,,,,,,,,,,,,,,,,,,,,,,,,,,,,,,,,,,,,,,,,,,,,,,,,,,,,,,,,,,,,,,,,,,,,,479072,001,2024-04-05_17h56.15.746,smts,2023.2.3,119.94064713525032,2024-04-05 17h57.06.184538 +0200,
,,,,,,,,24,0,24,0,0,0,0,0,205.47393754101358,,,,,,,,,,,,,,,,,,,,,,,,,,,,,,,,,,,,,,,,,205.4591915179917,205.47393754101358,205.47393754101358,205.47393754101358,205.47393754101358,205.47393754101358,205.55684332200326,205.5568603319989,205.56259626999963,206.45625657701748,206.45628499801387,206.47443782299524,206.47443782299524,206.47443782299524,206.47443782299524,206.47443782299524,208.67574562699883,208.67587065900443,208.68992044599145,208.68992044599145,210.18064300800324,,,,,,,,,,,,479072,001,2024-04-05_17h56.15.746,smts,2023.2.3,119.94064713525032,2024-04-05 17h57.06.184538 +0200,
,,,,,,,,24,0,24,0,1,0,1,0,210.1970067610091,,,,,,,,,,,,,,,,,,,,,,,,,,,,,Correct,,,,,,,,,,,,210.18115022301208,210.1970067610091,210.1970067610091,210.1970067610091,210.1970067610091,210.1970067610091,210.27636721599265,210.27639566699509,210.28929925200646,211.1790039500047,211.1790415419964,211.19732634699903,211.19732634699903,211.19732634699903,211.19732634699903,211.19732634699903,212.2733990070119,212.27357782199397,212.2844907460094,212.2844907460094,213.77970036899205,,,,,,,,,,,,479072,001,2024-04-05_17h56.15.746,smts,2023.2.3,119.94064713525032,2024-04-05 17h57.06.184538 +0200,
,,,,,,,,24,0,24,0,,,,,,,,,,,,,,,,,,,,,,,,,,,,,,,,,,,,,,,,,,,,,,,,,,,,,,,,,,,,,,,,,,,,,,,,,,,,,,479072,001,2024-04-05_17h56.15.746,smts,2023.2.3,119.94064713525032,2024-04-05 17h57.06.184538 +0200,
,,,,,,,,25,0,25,0,0,0,0,0,213.7971231029951,,,,,,,,,,,,,,,,,,,,,,,,,,,,,,,,,,,,,,,,,213.78190120999352,213.7971231029951,213.7971231029951,213.7971231029951,213.7971231029951,213.7971231029951,213.87760115601122,213.8776302410115,213.8891844729951,214.7790706990054,214.77910705900285,214.79863363300683,214.79863363300683,214.79863363300683,214.79863363300683,214.79863363300683,217.57322828500764,217.57331864599837,217.58190260300762,217.58190260300762,219.07355454401113,Color_Change,219.08941178501118,219.08941178501118,,,,,,,,,479072,001,2024-04-05_17h56.15.746,smts,2023.2.3,119.94064713525032,2024-04-05 17h57.06.184538 +0200,
,,,,,,,,25,0,25,0,1,0,1,0,219.08941178501118,,,,,,,,,,,,,,,,,,,,,,,,,,,,,Correct,,,,,,,,,,,,219.07402332799393,219.08941178501118,219.08941178501118,219.08941178501118,219.08941178501118,219.08941178501118,219.17350334100774,219.1735225119919,219.1791166900075,220.07288615300786,220.0729126209917,220.09225576900644,220.09225576900644,220.09225576900644,220.09225576900644,220.09225576900644,222.18383662801352,222.18395982900984,222.19344248599373,222.19344248599373,223.6892018399958,Color_Change,,,220.09225576900644,,,,,,,,479072,001,2024-04-05_17h56.15.746,smts,2023.2.3,119.94064713525032,2024-04-05 17h57.06.184538 +0200,
,,,,,,,,25,0,25,0,,,,,,,,,,,,,,,,,,,,,,,,,,,,,,,,,,,,,,,,,,,,,,,,,,,,,,,,,,,,,,,,,,,,,,,,,,,,,,479072,001,2024-04-05_17h56.15.746,smts,2023.2.3,119.94064713525032,2024-04-05 17h57.06.184538 +0200,
,,,,,,,,26,0,26,0,0,0,0,0,223.70657925700652,,,,,,,,,,,,,,,,,,,,,,,,,,,,,Correct,,,,,,,,,,,,223.69119699299335,223.70657925700652,223.70657925700652,223.70657925700652,223.70657925700652,223.70657925700652,223.78988533699885,223.78990367401275,223.79556477000006,224.6893485269975,224.6893767970032,224.70762294501765,224.70762294501765,224.70762294501765,224.70762294501765,224.70762294501765,230.37287034399924,230.37298535500304,230.3832977359998,230.3832977359998,231.87963734500227,,,,,,,,,,,,479072,001,2024-04-05_17h56.15.746,smts,2023.2.3,119.94064713525032,2024-04-05 17h57.06.184538 +0200,
,,,,,,,,26,0,26,0,,,,,,,,,,,,,,,,,,,,,,,,,,,,,,,,,,,,,,,,,,,,,,,,,,,,,,,,,,,,,,,,,,,,,,,,,,,,,,479072,001,2024-04-05_17h56.15.746,smts,2023.2.3,119.94064713525032,2024-04-05 17h57.06.184538 +0200,
,,,,,,,,27,0,27,0,0,0,0,0,231.89773757199873,,,,,,,,,,,,,,,,,,,,,,,,,,,,,Incorrect,,,,,,,,,,,,231.8817295980116,231.89773757199873,231.89773757199873,231.89773757199873,231.89773757199873,231.89773757199873,231.97656138500315,231.9765890389972,231.98907990101725,232.8790771579952,232.87911384299514,232.89790495100897,232.89790495100897,232.89790495100897,232.89790495100897,232.89790495100897,234.16573187499307,234.16588205299922,234.17547198801185,234.17547198801185,235.67237469999236,,,,,,,,,,,,479072,001,2024-04-05_17h56.15.746,smts,2023.2.3,119.94064713525032,2024-04-05 17h57.06.184538 +0200,
,,,,,,,,27,0,27,0,,,,,,,,,,,,,,,,,,,,,,,,,,,,,,,,,,,,,,,,,,,,,,,,,,,,,,,,,,,,,,,,,,,,,,,,,,,,,,479072,001,2024-04-05_17h56.15.746,smts,2023.2.3,119.94064713525032,2024-04-05 17h57.06.184538 +0200,
,,,,,,,,28,0,28,0,0,0,0,0,235.68980256500072,,,,,,,,,,,,,,,,,,,,,,,,,,,,,Correct,,,,,,,,,,,,235.67437610699562,235.68980256500072,235.68980256500072,235.68980256500072,235.68980256500072,235.68980256500072,235.77240700801485,235.77242764100083,235.77801616399665,236.67247609701008,236.67250581100234,236.6907525610004,236.6907525610004,236.6907525610004,236.6907525610004,236.6907525610004,241.2324245260097,241.23261897501652,241.24544380701263,241.24544380701263,242.739268594014,,,,,,,,,,,,479072,001,2024-04-05_17h56.15.746,smts,2023.2.3,119.94064713525032,2024-04-05 17h57.06.184538 +0200,
,,,,,,,,28,0,28,0,,,,,,,,,,,,,,,,,,,,,,,,,,,,,,,,,,,,,,,,,,,,,,,,,,,,,,,,,,,,,,,,,,,,,,,,,,,,,,479072,001,2024-04-05_17h56.15.746,smts,2023.2.3,119.94064713525032,2024-04-05 17h57.06.184538 +0200,
,,,,,,,,29,0,29,0,0,0,0,0,242.75206101400545,,,,,,,,,,,,,,,,,,,,,,,,,,,,,Correct,,,,,,,,,,,,242.7405993519933,242.75206101400545,242.75206101400545,242.75206101400545,242.75206101400545,242.75206101400545,242.83911799499765,242.8391418819956,242.84519232300227,243.7391519510129,243.73918053501984,243.75731911399635,243.75731911399635,243.75731911399635,243.75731911399635,243.75731911399635,246.0993975290039,246.0995510740031,246.10850552099873,246.10850552099873,247.60614205899765,,,,,,,,,,,,479072,001,2024-04-05_17h56.15.746,smts,2023.2.3,119.94064713525032,2024-04-05 17h57.06.184538 +0200,
,,,,,,,,29,0,29,0,,,,,,,,,,,,,,,,,,,,,,,,,,,,,,,,,,,,,,,,,,,,,,,,,,,,,,,,,,,,,,,,,,,,,,,,,,,,,,479072,001,2024-04-05_17h56.15.746,smts,2023.2.3,119.94064713525032,2024-04-05 17h57.06.184538 +0200,
,,,,,,,,30,0,30,0,0,0,0,0,247.6202334150148,,,,,,,,,,,,,,,,,,,,,,,,,,,,,Incorrect,,,,,,,,,,,,247.60753528299392,247.6202334150148,247.6202334150148,247.6202334150148,247.6202334150148,247.6202334150148,247.70561482099583,247.70563607101212,247.71140602201922,248.60627017801744,248.60629209299805,248.6228974609985,248.6228974609985,248.6228974609985,248.6228974609985,248.6228974609985,258.17270107902004,258.1728344990115,258.1841251520091,258.1841251520091,259.679038243019,Color_Change,,,,,,,,,,,479072,001,2024-04-05_17h56.15.746,smts,2023.2.3,119.94064713525032,2024-04-05 17h57.06.184538 +0200,
,,,,,,,,30,0,30,0,,,,,,,,,,,,,,,,,,,,,,,,,,,,,,,,,,,,,,,,,,,,,,,,,,,,,,,,,,,,,,,,,,,,,,,,,,,,,,479072,001,2024-04-05_17h56.15.746,smts,2023.2.3,119.94064713525032,2024-04-05 17h57.06.184538 +0200,
,,,,,,,,31,0,31,0,0,0,0,0,259.6969057020033,,,,,,,,,,,,,,,,,,,,,,,,,,,,,Correct,,,,,,,,,,,,259.68117058699136,259.6969057020033,259.6969057020033,259.6969057020033,259.6969057020033,259.6969057020033,259.7764136250189,259.7764419490122,259.7886256519996,260.67890357700526,260.67894129801425,260.69728278700495,260.69728278700495,260.69728278700495,260.69728278700495,260.69728278700495,270.0488872769929,270.0490211950091,270.0592928180122,270.0592928180122,271.5559847560071,,,,,,,,,,,,479072,001,2024-04-05_17h56.15.746,smts,2023.2.3,119.94064713525032,2024-04-05 17h57.06.184538 +0200,
,,,,,,,,31,0,31,0,,,,,,,,,,,,,,,,,,,,,,,,,,,,,,,,,,,,,,,,,,,,,,,,,,,,,,,,,,,,,,,,,,,,,,,,,,,,,,479072,001,2024-04-05_17h56.15.746,smts,2023.2.3,119.94064713525032,2024-04-05 17h57.06.184538 +0200,
,,,,,,,,32,0,32,0,0,0,0,0,271.5727380159951,,,,,,,,,,,,,,,,,,,,,,,,,,,,,Correct,,,,,,,,,,,,271.55795869301073,271.5727380159951,271.5727380159951,271.5727380159951,271.5727380159951,271.5727380159951,271.65563378101797,271.6556472280063,271.66038648501853,272.55533129899413,272.55536122000194,272.5735487740021,272.5735487740021,272.5735487740021,272.5735487740021,272.5735487740021,273.50615726900287,273.50629100599326,273.5174226399977,273.5174226399977,275.0121310200193,Locat_Change,,,,,,,,,,,479072,001,2024-04-05_17h56.15.746,smts,2023.2.3,119.94064713525032,2024-04-05 17h57.06.184538 +0200,
,,,,,,,,32,0,32,0,,,,,,,,,,,,,,,,,,,,,,,,,,,,,,,,,,,,,,,,,,,,,,,,,,,,,,,,,,,,,,,,,,,,,,,,,,,,,,479072,001,2024-04-05_17h56.15.746,smts,2023.2.3,119.94064713525032,2024-04-05 17h57.06.184538 +0200,
,,,,,,,,33,0,33,0,0,0,0,0,275.03015458301525,,,,,,,,,,,,,,,,,,,,,,,,,,,,,Correct,,,,,,,,,,,,275.014197187993,275.03015458301525,275.03015458301525,275.03015458301525,275.03015458301525,275.03015458301525,275.11648848399636,275.11651422601426,275.12341866700444,276.011889004003,276.0119268090057,276.02993555899593,276.02993555899593,276.02993555899593,276.02993555899593,276.02993555899593,278.04398317899904,278.04412865801714,278.05550098401727,278.05550098401727,279.54576134099625,Locat_Change,,,,,,,,,,,479072,001,2024-04-05_17h56.15.746,smts,2023.2.3,119.94064713525032,2024-04-05 17h57.06.184538 +0200,
,,,,,,,,33,0,33,0,,,,,,,,,,,,,,,,,,,,,,,,,,,,,,,,,,,,,,,,,,,,,,,,,,,,,,,,,,,,,,,,,,,,,,,,,,,,,,479072,001,2024-04-05_17h56.15.746,smts,2023.2.3,119.94064713525032,2024-04-05 17h57.06.184538 +0200,
,,,,,,,,34,0,34,0,0,0,0,0,279.5630838870129,,,,,,,,,,,,,,,,,,,,,,,,,,,,,Correct,,,,,,,,,,,,279.547847622016,279.5630838870129,279.5630838870129,279.5630838870129,279.5630838870129,279.5630838870129,279.649138089997,279.6491640339955,279.65602296599536,280.5444611959974,280.54448931501247,280.56090591699467,280.56090591699467,280.56090591699467,280.56090591699467,280.56090591699467,282.51435814099386,282.5145297560084,282.52527613699203,282.52527613699203,284.0224158480123,,,,,,,,,,,,479072,001,2024-04-05_17h56.15.746,smts,2023.2.3,119.94064713525032,2024-04-05 17h57.06.184538 +0200,
,,,,,,,,34,0,34,0,,,,,,,,,,,,,,,,,,,,,,,,,,,,,,,,,,,,,,,,,,,,,,,,,,,,,,,,,,,,,,,,,,,,,,,,,,,,,,479072,001,2024-04-05_17h56.15.746,smts,2023.2.3,119.94064713525032,2024-04-05 17h57.06.184538 +0200,
,,,,,,,,35,0,35,0,0,0,0,0,284.0390714330133,,,,,,,,,,,,,,,,,,,,,,,,,,,,,Incorrect,,,,,,,,,,,,284.024392538995,284.0390714330133,284.0390714330133,284.0390714330133,284.0390714330133,284.0390714330133,284.12241949001327,284.122438802995,284.1279140730039,285.02181562100304,285.02184382500127,285.0409713060071,285.0409713060071,285.0409713060071,285.0409713060071,285.0409713060071,286.089224972995,286.0893915850029,286.0994967370061,286.0994967370061,287.59613875401556,Color_Change,,,,,,,,,,,479072,001,2024-04-05_17h56.15.746,smts,2023.2.3,119.94064713525032,2024-04-05 17h57.06.184538 +0200,
,,,,,,,,35,0,35,0,,,,,,,,,,,,,,,,,,,,,,,,,,,,,,,,,,,,,,,,,,,,,,,,,,,,,,,,,,,,,,,,,,,,,,,,,,,,,,479072,001,2024-04-05_17h56.15.746,smts,2023.2.3,119.94064713525032,2024-04-05 17h57.06.184538 +0200,
,,,,,,,,36,0,36,0,0,0,0,0,287.61396690801485,,,,,,,,,,,,,,,,,,,,,,,,,,,,,Correct,,,,,,,,,,,,287.5982166019967,287.61396690801485,287.61396690801485,287.61396690801485,287.61396690801485,287.61396690801485,287.6912174670142,287.69123559401487,287.70490852501825,288.5944749120099,288.5945035869954,288.6108970119967,288.6108970119967,288.6108970119967,288.6108970119967,288.6108970119967,320.21448564800085,320.21461909799837,320.22512046800693,320.22512046800693,321.7212143460056,Locat_Change,,,,,,,,,,,479072,001,2024-04-05_17h56.15.746,smts,2023.2.3,119.94064713525032,2024-04-05 17h57.06.184538 +0200,
,,,,,,,,36,0,36,0,,,,,,,,,,,,,,,,,,,,,,,,,,,,,,,,,,,,,,,,,,,,,,,,,,,,,,,,,,,,,,,,,,,,,,,,,,,,,,479072,001,2024-04-05_17h56.15.746,smts,2023.2.3,119.94064713525032,2024-04-05 17h57.06.184538 +0200,
,,,,,,,,37,0,37,0,0,0,0,0,321.7385784079961,,,,,,,,,,,,,,,,,,,,,,,,,,,,,Correct,,,,,,,,,,,,321.72333853301825,321.7385784079961,321.7385784079961,321.7385784079961,321.7385784079961,321.7385784079961,321.8252189469931,321.8252377480094,321.83772428301745,322.72138959899894,322.72142043799977,322.73923208299675,322.73923208299675,322.73923208299675,322.73923208299675,322.73923208299675,323.565084353002,323.5652408210153,323.57416682399344,323.57416682399344,325.07187965200865,,,,,,,,,,,,479072,001,2024-04-05_17h56.15.746,smts,2023.2.3,119.94064713525032,2024-04-05 17h57.06.184538 +0200,
,,,,,,,,37,0,37,0,,,,,,,,,,,,,,,,,,,,,,,,,,,,,,,,,,,,,,,,,,,,,,,,,,,,,,,,,,,,,,,,,,,,,,,,,,,,,,479072,001,2024-04-05_17h56.15.746,smts,2023.2.3,119.94064713525032,2024-04-05 17h57.06.184538 +0200,
,,,,,,,,38,0,38,0,0,0,0,0,325.0884980900155,,,,,,,,,,,,,,,,,,,,,,,,,,,,,Correct,,,,,,,,,,,,325.0736917970062,325.0884980900155,325.0884980900155,325.0884980900155,325.0884980900155,325.0884980900155,325.1755489630159,325.17557655400014,325.1877285670198,326.0713040220144,326.0713334699976,326.09067777500604,326.09067777500604,326.09067777500604,326.09067777500604,326.09067777500604,326.81536800201866,326.81550263101235,326.8257542400097,326.8257542400097,328.3211162360094,Color_Change,,,,,,,,,,,479072,001,2024-04-05_17h56.15.746,smts,2023.2.3,119.94064713525032,2024-04-05 17h57.06.184538 +0200,
,,,,,,,,38,0,38,0,,,,,,,,,,,,,,,,,,,,,,,,,,,,,,,,,,,,,,,,,,,,,,,,,,,,,,,,,,,,,,,,,,,,,,,,,,,,,,479072,001,2024-04-05_17h56.15.746,smts,2023.2.3,119.94064713525032,2024-04-05 17h57.06.184538 +0200,
,,,,,,,,39,0,39,0,0,0,0,0,328.3390763250063,,,,,,,,,,,,,,,,,,,,,,,,,,,,,Correct,,,,,,,,,,,,328.3231164129975,328.3390763250063,328.3390763250063,328.3390763250063,328.3390763250063,328.3390763250063,328.424883914995,328.42491230301675,328.4376486870169,329.3213177139987,329.3213463909924,329.34084288499434,329.34084288499434,329.34084288499434,329.34084288499434,329.34084288499434,330.0881884440023,330.08836376899853,330.09784821400535,330.09784821400535,331.59475079900585,Color_Change,,,,,,,,,,,479072,001,2024-04-05_17h56.15.746,smts,2023.2.3,119.94064713525032,2024-04-05 17h57.06.184538 +0200,
,,,,,,,,39,0,39,0,,,,,,,,,,,,,,,,,,,,,,,,,,,,,,,,,,,,,,,,,,,,,,,,,,,,,,,,,,,,,,,,,,,,,,,,,,,,,,479072,001,2024-04-05_17h56.15.746,smts,2023.2.3,119.94064713525032,2024-04-05 17h57.06.184538 +0200,
,,,,,,,,40,0,40,0,0,0,0,0,331.61230127801537,,,,,,,,,,,,,,,,,,,,,,,,,,,,,Incorrect,,,,,,,,,,,,331.5968267940043,331.61230127801537,331.61230127801537,331.61230127801537,331.61230127801537,331.61230127801537,331.6920254580036,331.69205381401116,331.7043396840163,332.59433674800675,332.5943753850006,332.6128033660061,332.6128033660061,332.6128033660061,332.6128033660061,332.6128033660061,333.3618673540186,333.36197343000094,333.37130805299967,333.37130805299967,334.87110582500463,,,,,,,,,,,,479072,001,2024-04-05_17h56.15.746,smts,2023.2.3,119.94064713525032,2024-04-05 17h57.06.184538 +0200,
,,,,,,,,40,0,40,0,,,,,,,,,,,,,,,,,,,,,,,,,,,,,,,,,,,,,,,,,,,,,,,,,,,,,,,,,,,,,,,,,,,,,,,,,,,,,,479072,001,2024-04-05_17h56.15.746,smts,2023.2.3,119.94064713525032,2024-04-05 17h57.06.184538 +0200,
,,,,,,,,41,0,41,0,0,0,0,0,334.8880018730124,,,,,,,,,,,,,,,,,,,,,,,,,,,,,Correct,,,,,,,,,,,,334.8731033570075,334.8880018730124,334.8880018730124,334.8880018730124,334.8880018730124,334.8880018730124,334.97108839900466,334.9711090440105,334.97678647300927,335.87119028900634,335.87121842001216,335.8909303469991,335.8909303469991,335.8909303469991,335.8909303469991,335.8909303469991,336.6080383179942,336.60823316601454,336.62173394000274,336.62173394000274,338.1114361390064,Color_Change,,,,,,,,,,,479072,001,2024-04-05_17h56.15.746,smts,2023.2.3,119.94064713525032,2024-04-05 17h57.06.184538 +0200,
,,,,,,,,41,0,41,0,,,,,,,,,,,,,,,,,,,,,,,,,,,,,,,,,,,,,,,,,,,,,,,,,,,,,,,,,,,,,,,,,,,,,,,,,,,,,,479072,001,2024-04-05_17h56.15.746,smts,2023.2.3,119.94064713525032,2024-04-05 17h57.06.184538 +0200,
,,,,,,,,42,0,42,0,0,0,0,0,338.1290419200086,,,,,,,,,,,,,,,,,,,,,,,,,,,,,Correct,,,,,,,,,,,,338.1135099660023,338.1290419200086,338.1290419200086,338.1290419200086,338.1290419200086,338.1290419200086,338.2145366909972,338.21456303901505,338.2215118680033,339.110907727998,339.1109436440165,339.1303154999914,339.1303154999914,339.1303154999914,339.1303154999914,339.1303154999914,340.05503133000457,340.05524462199537,340.06507592700655,340.06507592700655,341.562043590995,Color_Change,,,,,,,,,,,479072,001,2024-04-05_17h56.15.746,smts,2023.2.3,119.94064713525032,2024-04-05 17h57.06.184538 +0200,
,,,,,,,,42,0,42,0,,,,,,,,,,,,,,,,,,,,,,,,,,,,,,,,,,,,,,,,,,,,,,,,,,,,,,,,,,,,,,,,,,,,,,,,,,,,,,479072,001,2024-04-05_17h56.15.746,smts,2023.2.3,119.94064713525032,2024-04-05 17h57.06.184538 +0200,
,,,,,,,,43,0,43,0,0,0,0,0,341.5794557929912,,,,,,,,,,,,,,,,,,,,,,,,,,,,,Correct,,,,,,,,,,,,341.5640995730064,341.5794557929912,341.5794557929912,341.5794557929912,341.5794557929912,341.5794557929912,341.66605048201745,341.6660976120038,341.67450681401533,342.5607256660005,342.5607620300143,342.5799743150128,342.5799743150128,342.5799743150128,342.5799743150128,342.5799743150128,343.3254934360157,343.3256614480051,343.33807526901364,343.33807526901364,344.82841136399657,Color_Change,,,,,,,,,,,479072,001,2024-04-05_17h56.15.746,smts,2023.2.3,119.94064713525032,2024-04-05 17h57.06.184538 +0200,
,,,,,,,,43,0,43,0,,,,,,,,,,,,,,,,,,,,,,,,,,,,,,,,,,,,,,,,,,,,,,,,,,,,,,,,,,,,,,,,,,,,,,,,,,,,,,479072,001,2024-04-05_17h56.15.746,smts,2023.2.3,119.94064713525032,2024-04-05 17h57.06.184538 +0200,
,,,,,,,,44,0,44,0,0,0,0,0,344.8460164559947,,,,,,,,,,,,,,,,,,,,,,,,,,,,,Correct,,,,,,,,,,,,344.83052550200955,344.8460164559947,344.8460164559947,344.8460164559947,344.8460164559947,344.8460164559947,344.9376970080193,344.9377204570046,344.9438786499959,345.8275777650124,345.8276157040091,345.8460157930094,345.8460157930094,345.8460157930094,345.8460157930094,345.8460157930094,346.68271722100326,346.6828775560134,346.6937959830102,346.6937959830102,348.1874261230114,,,,,,,,,,,,479072,001,2024-04-05_17h56.15.746,smts,2023.2.3,119.94064713525032,2024-04-05 17h57.06.184538 +0200,
,,,,,,,,44,0,44,0,,,,,,,,,,,,,,,,,,,,,,,,,,,,,,,,,,,,,,,,,,,,,,,,,,,,,,,,,,,,,,,,,,,,,,,,,,,,,,479072,001,2024-04-05_17h56.15.746,smts,2023.2.3,119.94064713525032,2024-04-05 17h57.06.184538 +0200,
,,,,,,,,45,0,45,0,0,0,0,0,348.20299617701676,,,,,,,,,,,,,,,,,,,,,,,,,,,,,Correct,,,,,,,,,,,,348.18925629599835,348.20299617701676,348.20299617701676,348.20299617701676,348.20299617701676,348.20299617701676,348.2875680169964,348.28758752401336,348.2932383950101,349.187593589013,349.1876238810073,349.20595520801726,349.20595520801726,349.20595520801726,349.20595520801726,349.20595520801726,349.9549435740046,349.95512658401276,349.9667556330096,349.9667556330096,351.46160580500145,Locat_Change,,,,,,,,,,,479072,001,2024-04-05_17h56.15.746,smts,2023.2.3,119.94064713525032,2024-04-05 17h57.06.184538 +0200,
,,,,,,,,45,0,45,0,,,,,,,,,,,,,,,,,,,,,,,,,,,,,,,,,,,,,,,,,,,,,,,,,,,,,,,,,,,,,,,,,,,,,,,,,,,,,,479072,001,2024-04-05_17h56.15.746,smts,2023.2.3,119.94064713525032,2024-04-05 17h57.06.184538 +0200,
,,,,,,,,46,0,46,0,0,0,0,0,351.4792036220024,,,,,,,,,,,,,,,,,,,,,,,,,,,,,Correct,,,,,,,,,,,,351.46365741599584,351.4792036220024,351.4792036220024,351.4792036220024,351.4792036220024,351.4792036220024,351.55812037401483,351.5581400509982,351.57077843300067,352.46095102699474,352.4609933739994,352.4785355440108,352.4785355440108,352.4785355440108,352.4785355440108,352.4785355440108,353.2256413070136,353.2257793369936,353.2379060999956,353.2379060999956,354.7277377220162,,,,,,,,,,,,479072,001,2024-04-05_17h56.15.746,smts,2023.2.3,119.94064713525032,2024-04-05 17h57.06.184538 +0200,
,,,,,,,,46,0,46,0,,,,,,,,,,,,,,,,,,,,,,,,,,,,,,,,,,,,,,,,,,,,,,,,,,,,,,,,,,,,,,,,,,,,,,,,,,,,,,479072,001,2024-04-05_17h56.15.746,smts,2023.2.3,119.94064713525032,2024-04-05 17h57.06.184538 +0200,
,,,,,,,,47,0,47,0,0,0,0,0,354.74549201200716,,,,,,,,,,,,,,,,,,,,,,,,,,,,,Correct,,,,,,,,,,,,354.72978051999235,354.74549201200716,354.74549201200716,354.74549201200716,354.74549201200716,354.74549201200716,354.83872817101656,354.8387477520155,354.84440222600824,355.7274435030122,355.7274825880013,355.7459441240062,355.7459441240062,355.7459441240062,355.7459441240062,355.7459441240062,356.4917045290058,356.4918226709997,356.5046651950106,356.5046651950106,357.9947800110094,,,,,,,,,,,,479072,001,2024-04-05_17h56.15.746,smts,2023.2.3,119.94064713525032,2024-04-05 17h57.06.184538 +0200,
,,,,,,,,47,0,47,0,,,,,,,,,,,,,,,,,,,,,,,,,,,,,,,,,,,,,,,,,,,,,,,,,,,,,,,,,,,,,,,,,,,,,,,,,,,,,,479072,001,2024-04-05_17h56.15.746,smts,2023.2.3,119.94064713525032,2024-04-05 17h57.06.184538 +0200,
,,,,,,,,48,0,48,0,0,0,0,0,358.01248764302,,,,,,,,,,,,,,,,,,,,,,,,,,,,,Correct,,,,,,,,,,,,357.99686652899254,358.01248764302,358.01248764302,358.01248764302,358.01248764302,358.01248764302,358.1047725630051,358.1047920300043,358.1104358860175,358.99417307099793,358.9942021780007,359.01064848000533,359.01064848000533,359.01064848000533,359.01064848000533,359.01064848000533,359.9044570279948,359.9045733200037,359.91354164501536,359.91354164501536,361.4046896980144,,,,,,,,,,,,479072,001,2024-04-05_17h56.15.746,smts,2023.2.3,119.94064713525032,2024-04-05 17h57.06.184538 +0200,
,,,,,,,,48,0,48,0,,,,,,,,,,,,,,,,,,,,,,,,,,,,,,,,,,,,,,,,,,,,,,,,,,,,,,,,,,,,,,,,,,,,,,,,,,,,,,479072,001,2024-04-05_17h56.15.746,smts,2023.2.3,119.94064713525032,2024-04-05 17h57.06.184538 +0200,
,,,,,,,,49,0,49,0,0,0,0,0,361.4211702100001,,,,,,,,,,,,,,,,,,,,,,,,,,,,,,,,,,,,,,,,,361.406684726011,361.4211702100001,361.4211702100001,361.4211702100001,361.4211702100001,361.4211702100001,361.5138582389918,361.5138850180083,361.5205494980037,362.4105676180043,362.41060691099847,362.42840722500114,362.42840722500114,362.42840722500114,362.42840722500114,362.42840722500114,363.5154990919982,363.51560273201903,363.52536990400404,363.52536990400404,365.0209049890109,,,,,,,,,,,,479072,001,2024-04-05_17h56.15.746,smts,2023.2.3,119.94064713525032,2024-04-05 17h57.06.184538 +0200,
,,,,,,,,49,0,49,0,1,0,1,0,365.03127879300155,,,,,,,,,,,,,,,,,,,,,,,,,,,,,Correct,,,,,,,,,,,,365.02115149400197,365.03127879300155,365.03127879300155,365.03127879300155,365.03127879300155,365.03127879300155,365.12087123599485,365.12088207300985,365.1252968320041,366.0212726210011,366.02129551401595,366.0385258549941,366.0385258549941,366.0385258549941,366.0385258549941,366.0385258549941,366.8877614060184,366.88787953701103,366.8973221320193,366.8973221320193,368.3879652339965,,,,,,,,,,,,479072,001,2024-04-05_17h56.15.746,smts,2023.2.3,119.94064713525032,2024-04-05 17h57.06.184538 +0200,
,,,,,,,,49,0,49,0,,,,,,,,,,,,,,,,,,,,,,,,,,,,,,,,,,,,,,,,,,,,,,,,,,,,,,,,,,,,,,,,,,,,,,,,,,,,,,479072,001,2024-04-05_17h56.15.746,smts,2023.2.3,119.94064713525032,2024-04-05 17h57.06.184538 +0200,
,,,,,,,,50,0,50,0,0,0,0,0,368.40466795599787,,,,,,,,,,,,,,,,,,,,,,,,,,,,,Correct,,,,,,,,,,,,368.38995703999535,368.40466795599787,368.40466795599787,368.40466795599787,368.40466795599787,368.40466795599787,368.50406122699496,368.5040818230191,368.50990984099917,369.3936968240014,369.3937328030006,369.412305136997,369.412305136997,369.412305136997,369.412305136997,369.412305136997,370.3880983010167,370.3882477720035,370.39787959400564,370.39787959400564,371.89373985500424,Locat_Change,,,,,,,,,,,479072,001,2024-04-05_17h56.15.746,smts,2023.2.3,119.94064713525032,2024-04-05 17h57.06.184538 +0200,
,,,,,,,,50,0,50,0,,,,,,,,,,,,,,,,,,,,,,,,,,,,,,,,,,,,,,,,,,,,,,,,,,,,,,,,,,,,,,,,,,,,,,,,,,,,,,479072,001,2024-04-05_17h56.15.746,smts,2023.2.3,119.94064713525032,2024-04-05 17h57.06.184538 +0200,
,,,,,,,,51,0,51,0,0,0,0,0,371.90775903800386,,,,,,,,,,,,,,,,,,,,,,,,,,,,,Correct,,,,,,,,,,,,371.8950049690029,371.90775903800386,371.90775903800386,371.90775903800386,371.90775903800386,371.90775903800386,372.0037371299986,372.0037489370152,372.01988775501377,372.8921931380173,372.8922062990023,372.9040393019968,372.9040393019968,372.9040393019968,372.9040393019968,372.9040393019968,373.71187551601906,373.7120070810197,373.71997359601664,373.71997359601664,375.2207622140122,Locat_Change,,,,,,,,,,,479072,001,2024-04-05_17h56.15.746,smts,2023.2.3,119.94064713525032,2024-04-05 17h57.06.184538 +0200,
,,,,,,,,51,0,51,0,,,,,,,,,,,,,,,,,,,,,,,,,,,,,,,,,,,,,,,,,,,,,,,,,,,,,,,,,,,,,,,,,,,,,,,,,,,,,,479072,001,2024-04-05_17h56.15.746,smts,2023.2.3,119.94064713525032,2024-04-05 17h57.06.184538 +0200,
,,,,,,,,52,0,52,0,0,0,0,0,375.2326457000163,,,,,,,,,,,,,,,,,,,,,,,,,,,,,Incorrect,,,,,,,,,,,,375.22183277999284,375.2326457000163,375.2326457000163,375.2326457000163,375.2326457000163,375.2326457000163,375.3207690069976,375.32078090601135,375.32554883501143,376.2206865590124,376.2206998130132,376.23187250099727,376.23187250099727,376.23187250099727,376.23187250099727,376.23187250099727,377.0874996850034,377.0876125380164,377.09629494600813,377.09629494600813,378.5877499229973,Color_Change,,,,,,,,,,,479072,001,2024-04-05_17h56.15.746,smts,2023.2.3,119.94064713525032,2024-04-05 17h57.06.184538 +0200,
,,,,,,,,52,0,52,0,,,,,,,,,,,,,,,,,,,,,,,,,,,,,,,,,,,,,,,,,,,,,,,,,,,,,,,,,,,,,,,,,,,,,,,,,,,,,,479072,001,2024-04-05_17h56.15.746,smts,2023.2.3,119.94064713525032,2024-04-05 17h57.06.184538 +0200,
,,,,,,,,53,0,53,0,0,0,0,0,378.60262141600833,,,,,,,,,,,,,,,,,,,,,,,,,,,,,Correct,,,,,,,,,,,,378.58946302201366,378.60262141600833,378.60262141600833,378.60262141600833,378.60262141600833,378.60262141600833,378.6985437920084,378.69857035399764,378.7204351730179,379.59351878700545,379.5935535239987,379.6118864820164,379.6118864820164,379.6118864820164,379.6118864820164,379.6118864820164,380.4313393350167,380.4315470030124,380.44367277499987,380.44367277499987,381.93767639799626,Locat_Change,,,,,,,,,,,479072,001,2024-04-05_17h56.15.746,smts,2023.2.3,119.94064713525032,2024-04-05 17h57.06.184538 +0200,
,,,,,,,,53,0,53,0,,,,,,,,,,,,,,,,,,,,,,,,,,,,,,,,,,,,,,,,,,,,,,,,,,,,,,,,,,,,,,,,,,,,,,,,,,,,,,479072,001,2024-04-05_17h56.15.746,smts,2023.2.3,119.94064713525032,2024-04-05 17h57.06.184538 +0200,
,,,,,,,,54,0,54,0,0,0,0,0,381.95455216700793,,,,,,,,,,,,,,,,,,,,,,,,,,,,,Correct,,,,,,,,,,,,381.93965656799264,381.95455216700793,381.95455216700793,381.95455216700793,381.95455216700793,381.95455216700793,382.03774085099576,382.03775953000877,382.0434336250182,382.93727994299843,382.9372925719945,382.9485021470173,382.9485021470173,382.9485021470173,382.9485021470173,382.9485021470173,383.90467151399935,383.9048704900197,383.91628424599185,383.91628424599185,385.41093839600217,Color_Change,,,,,,,,,,,479072,001,2024-04-05_17h56.15.746,smts,2023.2.3,119.94064713525032,2024-04-05 17h57.06.184538 +0200,
,,,,,,,,54,0,54,0,,,,,,,,,,,,,,,,,,,,,,,,,,,,,,,,,,,,,,,,,,,,,,,,,,,,,,,,,,,,,,,,,,,,,,,,,,,,,,479072,001,2024-04-05_17h56.15.746,smts,2023.2.3,119.94064713525032,2024-04-05 17h57.06.184538 +0200,
,,,,,,,,55,0,55,0,0,0,0,0,385.4235570540186,,,,,,,,,,,,,,,,,,,,,,,,,,,,,Correct,,,,,,,,,,,,385.4122197609977,385.4235570540186,385.4235570540186,385.4235570540186,385.4235570540186,385.4235570540186,385.5092851849913,385.509309415007,385.52079212499666,386.41020961201866,386.4102361940022,386.4265905400098,386.4265905400098,386.4265905400098,386.4265905400098,386.4265905400098,387.40821924901684,387.4083688890096,387.42075945500983,387.42075945500983,388.91091994202,,,,,,,,,,,,479072,001,2024-04-05_17h56.15.746,smts,2023.2.3,119.94064713525032,2024-04-05 17h57.06.184538 +0200,
,,,,,,,,55,0,55,0,,,,,,,,,,,,,,,,,,,,,,,,,,,,,,,,,,,,,,,,,,,,,,,,,,,,,,,,,,,,,,,,,,,,,,,,,,,,,,479072,001,2024-04-05_17h56.15.746,smts,2023.2.3,119.94064713525032,2024-04-05 17h57.06.184538 +0200,
,,,,,,,,56,0,56,0,0,0,0,0,388.9302892459964,,,,,,,,,,,,,,,,,,,,,,,,,,,,,Correct,,,,,,,,,,,,388.9133381730062,388.9302892459964,388.9302892459964,388.9302892459964,388.9302892459964,388.9302892459964,389.0210965190199,389.0211160350009,389.02678765999735,389.91014182401705,389.91017881099833,389.9282874079945,389.9282874079945,389.9282874079945,389.9282874079945,389.9282874079945,390.7540805019962,390.7541996310174,390.7636462429946,390.7636462429946,392.26135808299296,Locat_Change,,,,,,,,,,,479072,001,2024-04-05_17h56.15.746,smts,2023.2.3,119.94064713525032,2024-04-05 17h57.06.184538 +0200,
,,,,,,,,56,0,56,0,,,,,,,,,,,,,,,,,,,,,,,,,,,,,,,,,,,,,,,,,,,,,,,,,,,,,,,,,,,,,,,,,,,,,,,,,,,,,,479072,001,2024-04-05_17h56.15.746,smts,2023.2.3,119.94064713525032,2024-04-05 17h57.06.184538 +0200,
,,,,,,,,57,0,57,0,0,0,0,0,392.27951949101407,,,,,,,,,,,,,,,,,,,,,,,,,,,,,Correct,,,,,,,,,,,,392.2634055679955,392.27951949101407,392.27951949101407,392.27951949101407,392.27951949101407,392.27951949101407,392.35798722400796,392.35801517401705,392.37024888099404,393.2603411460004,393.26036995701725,393.2772268220142,393.2772268220142,393.2772268220142,393.2772268220142,393.2772268220142,394.070989261003,394.07111542500206,394.08052581199445,394.08052581199445,395.5773774179979,,,,,,,,,,,,479072,001,2024-04-05_17h56.15.746,smts,2023.2.3,119.94064713525032,2024-04-05 17h57.06.184538 +0200,
,,,,,,,,57,0,57,0,,,,,,,,,,,,,,,,,,,,,,,,,,,,,,,,,,,,,,,,,,,,,,,,,,,,,,,,,,,,,,,,,,,,,,,,,,,,,,479072,001,2024-04-05_17h56.15.746,smts,2023.2.3,119.94064713525032,2024-04-05 17h57.06.184538 +0200,
,,,,,,,,58,0,58,0,0,0,0,0,395.59487297100713,,,,,,,,,,,,,,,,,,,,,,,,,,,,,Incorrect,,,,,,,,,,,,395.5794444869971,395.59487297100713,395.59487297100713,395.59487297100713,395.59487297100713,395.59487297100713,395.6803252969985,395.680352839001,395.68672130600316,396.57640228199307,396.5764363640046,396.595690482005,396.595690482005,396.595690482005,396.595690482005,396.595690482005,397.50642194901593,397.50657391699497,397.52068989301915,397.52068989301915,399.0106695420109,Color_Change,,,,,,,,,,,479072,001,2024-04-05_17h56.15.746,smts,2023.2.3,119.94064713525032,2024-04-05 17h57.06.184538 +0200,
,,,,,,,,58,0,58,0,,,,,,,,,,,,,,,,,,,,,,,,,,,,,,,,,,,,,,,,,,,,,,,,,,,,,,,,,,,,,,,,,,,,,,,,,,,,,,479072,001,2024-04-05_17h56.15.746,smts,2023.2.3,119.94064713525032,2024-04-05 17h57.06.184538 +0200,
,,,,,,,,59,0,59,0,0,0,0,0,399.02852481399896,,,,,,,,,,,,,,,,,,,,,,,,,,,,,Correct,,,,,,,,,,,,399.01274480400025,399.02852481399896,399.02852481399896,399.02852481399896,399.02852481399896,399.02852481399896,399.1074157830153,399.10743431400624,399.1200882490084,400.0099654130172,400.01000225701137,400.0279433520045,400.0279433520045,400.0279433520045,400.0279433520045,400.0279433520045,400.97490921401186,400.9750572000048,400.98717909600236,400.98717909600236,402.4778375099995,,,,,,,,,,,,479072,001,2024-04-05_17h56.15.746,smts,2023.2.3,119.94064713525032,2024-04-05 17h57.06.184538 +0200,
,,,,,,,,59,0,59,0,,,,,,,,,,,,,,,,,,,,,,,,,,,,,,,,,,,,,,,,,,,,,,,,,,,,,,,,,,,,,,,,,,,,,,,,,,,,,,479072,001,2024-04-05_17h56.15.746,smts,2023.2.3,119.94064713525032,2024-04-05 17h57.06.184538 +0200,
,,,,,,,,60,0,60,0,0,0,0,0,402.4941246100061,,,,,,,,,,,,,,,,,,,,,,,,,,,,,Correct,,,,,,,,,,,,402.479627438006,402.4941246100061,402.4941246100061,402.4941246100061,402.4941246100061,402.4941246100061,402.58037435499136,402.58039942901814,402.5867058430158,403.4766412799945,403.47667781900964,403.4946558170195,403.4946558170195,403.4946558170195,403.4946558170195,403.4946558170195,404.4408081230067,404.4409519160108,404.4538757959963,404.4538757959963,405.94382636100636,,,,,,,,,,,,479072,001,2024-04-05_17h56.15.746,smts,2023.2.3,119.94064713525032,2024-04-05 17h57.06.184538 +0200,
,,,,,,,,60,0,60,0,,,,,,,,,,,,,,,,,,,,,,,,,,,,,,,,,,,,,,,,,,,,,,,,,,,,,,,,,,,,,,,,,,,,,,,,,,,,,,479072,001,2024-04-05_17h56.15.746,smts,2023.2.3,119.94064713525032,2024-04-05 17h57.06.184538 +0200,
,,,,,,,,61,0,61,0,0,0,0,0,405.96130305499537,,,,,,,,,,,,,,,,,,,,,,,,,,,,,Correct,,,,,,,,,,,,405.94588526399457,405.96130305499537,405.96130305499537,405.96130305499537,405.96130305499537,405.96130305499537,406.0542361990083,406.0542549160018,406.0599586919998,406.94309930701274,406.9431317849958,406.96104676800314,406.96104676800314,406.96104676800314,406.96104676800314,406.96104676800314,407.9801561009954,407.98034224900766,407.9908400120039,407.9908400120039,409.48752242099727,Locat_Change,,,,,,,,,,,479072,001,2024-04-05_17h56.15.746,smts,2023.2.3,119.94064713525032,2024-04-05 17h57.06.184538 +0200,
,,,,,,,,61,0,61,0,,,,,,,,,,,,,,,,,,,,,,,,,,,,,,,,,,,,,,,,,,,,,,,,,,,,,,,,,,,,,,,,,,,,,,,,,,,,,,479072,001,2024-04-05_17h56.15.746,smts,2023.2.3,119.94064713525032,2024-04-05 17h57.06.184538 +0200,
,,,,,,,,62,0,62,0,0,0,0,0,409.5036488060141,,,,,,,,,,,,,,,,,,,,,,,,,,,,,Correct,,,,,,,,,,,,409.4894156109949,409.5036488060141,409.5036488060141,409.5036488060141,409.5036488060141,409.5036488060141,409.5807144040009,409.5807410200068,409.5875930530019,410.48681889101863,410.48684634201345,410.50635239400435,410.50635239400435,410.50635239400435,410.50635239400435,410.50635239400435,411.9075887100189,411.9077589260123,411.92045318501187,411.92045318501187,413.41044480600976,Color_Change,,,,,,,,,,,479072,001,2024-04-05_17h56.15.746,smts,2023.2.3,119.94064713525032,2024-04-05 17h57.06.184538 +0200,
,,,,,,,,62,0,62,0,,,,,,,,,,,,,,,,,,,,,,,,,,,,,,,,,,,,,,,,,,,,,,,,,,,,,,,,,,,,,,,,,,,,,,,,,,,,,,479072,001,2024-04-05_17h56.15.746,smts,2023.2.3,119.94064713525032,2024-04-05 17h57.06.184538 +0200,
,,,,,,,,63,0,63,0,0,0,0,0,413.4267319920182,,,,,,,,,,,,,,,,,,,,,,,,,,,,,Correct,,,,,,,,,,,,413.41226725501474,413.4267319920182,413.4267319920182,413.4267319920182,413.4267319920182,413.4267319920182,413.51386862201616,413.5138949060056,413.52082433601026,414.40973399800714,414.4097690189956,414.4281842150085,414.4281842150085,414.4281842150085,414.4281842150085,414.4281842150085,415.27373936699587,415.2738979530113,415.28718633399694,415.28718633399694,416.77701371899457,Locat_Change,,,,,,,,,,,479072,001,2024-04-05_17h56.15.746,smts,2023.2.3,119.94064713525032,2024-04-05 17h57.06.184538 +0200,
,,,,,,,,63,0,63,0,,,,,,,,,,,,,,,,,,,,,,,,,,,,,,,,,,,,,,,,,,,,,,,,,,,,,,,,,,,,,,,,,,,,,,,,,,,,,,479072,001,2024-04-05_17h56.15.746,smts,2023.2.3,119.94064713525032,2024-04-05 17h57.06.184538 +0200,
,,,,,,,,64,0,64,0,0,0,0,0,416.796702068008,,,,,,,,,,,,,,,,,,,,,,,,,,,,,,,,,,,,,,,,,416.7794945810165,416.796702068008,416.796702068008,416.796702068008,416.796702068008,416.796702068008,416.8744273929915,416.8744567880058,416.8865564200096,417.77666331100045,417.77669824199984,417.7949505739962,417.7949505739962,417.7949505739962,417.7949505739962,417.7949505739962,418.96450026199454,418.9646415419993,418.97477867701673,418.97477867701673,420.4703419190191,,,,,,,,,,,,479072,001,2024-04-05_17h56.15.746,smts,2023.2.3,119.94064713525032,2024-04-05 17h57.06.184538 +0200,
,,,,,,,,64,0,64,0,1,0,1,0,420.4833082600089,,,,,,,,,,,,,,,,,,,,,,,,,,,,,Correct,,,,,,,,,,,,420.4706636680057,420.4833082600089,420.4833082600089,420.4833082600089,420.4833082600089,420.4833082600089,420.5699324250163,420.5699531089922,420.575572931004,421.47015574999386,421.4701839979971,421.48778934401344,421.48778934401344,421.48778934401344,421.48778934401344,421.48778934401344,422.0460192540195,422.0461535509967,422.05627805701806,422.05627805701806,423.55317839901545,,,,,,,,,,,,479072,001,2024-04-05_17h56.15.746,smts,2023.2.3,119.94064713525032,2024-04-05 17h57.06.184538 +0200,
,,,,,,,,64,0,64,0,,,,,,,,,,,,,,,,,,,,,,,,,,,,,,,,,,,,,,,,,,,,,,,,,,,,,,,,,,,,,,,,,,,,,,,,,,,,,,479072,001,2024-04-05_17h56.15.746,smts,2023.2.3,119.94064713525032,2024-04-05 17h57.06.184538 +0200,
,,,,,,,,65,0,65,0,0,0,0,0,423.5691609790083,,,,,,,,,,,,,,,,,,,,,,,,,,,,,,,,,,,,,,,,,423.55523161400924,423.5691609790083,423.5691609790083,423.5691609790083,423.5691609790083,423.5691609790083,423.6471070830012,423.6471312030044,423.6539542899991,424.55324341601226,424.5532702119963,424.57234638900263,424.57234638900263,424.57234638900263,424.57234638900263,424.57234638900263,425.5122147760121,425.5123700190161,425.52227675600443,425.52227675600443,427.0204266340006,Color_Change,,,,,,,,,,,479072,001,2024-04-05_17h56.15.746,smts,2023.2.3,119.94064713525032,2024-04-05 17h57.06.184538 +0200,
,,,,,,,,65,0,65,0,1,0,1,0,427.03679427001043,,,,,,,,,,,,,,,,,,,,,,,,,,,,,,,,,,,,,,,,,427.020904495992,427.03679427001043,427.03679427001043,427.03679427001043,427.03679427001043,427.03679427001043,427.113000265992,427.113026128005,427.1204914730042,428.01984485800494,428.01987099600956,428.03866269500577,428.03866269500577,428.03866269500577,428.03866269500577,428.03866269500577,429.53138977399794,429.53148967400193,429.5417976780154,429.5417976780154,431.03718675501295,Color_Change,,,,,,,,,,,479072,001,2024-04-05_17h56.15.746,smts,2023.2.3,119.94064713525032,2024-04-05 17h57.06.184538 +0200,
,,,,,,,,65,0,65,0,2,0,2,0,431.0525177050149,,,,,,,,,,,,,,,,,,,,,,,,,,,,,Correct,,,,,,,,,,,,431.03766793300747,431.0525177050149,431.0525177050149,431.0525177050149,431.0525177050149,431.0525177050149,431.1407057149918,431.1407289619965,431.1528976940026,432.0364953340031,432.0365237320075,432.05555811099475,432.05555811099475,432.05555811099475,432.05555811099475,432.05555811099475,432.90380433699465,432.9039489449933,432.9143109880097,432.9143109880097,434.41056834199117,Color_Change,,,,,,,,,,,479072,001,2024-04-05_17h56.15.746,smts,2023.2.3,119.94064713525032,2024-04-05 17h57.06.184538 +0200,
,,,,,,,,65,0,65,0,,,,,,,,,,,,,,,,,,,,,,,,,,,,,,,,,,,,,,,,,,,,,,,,,,,,,,,,,,,,,,,,,,,,,,,,,,,,,,479072,001,2024-04-05_17h56.15.746,smts,2023.2.3,119.94064713525032,2024-04-05 17h57.06.184538 +0200,
,,,,,,,,66,0,66,0,0,0,0,0,434.42831556501915,,,,,,,,,,,,,,,,,,,,,,,,,,,,,Correct,,,,,,,,,,,,434.41262258199276,434.42831556501915,434.42831556501915,434.42831556501915,434.42831556501915,434.42831556501915,434.50716309799463,434.5071839299926,434.5195456870133,435.40931610099506,435.4093443439924,435.42653011801303,435.42653011801303,435.42653011801303,435.42653011801303,435.42653011801303,436.707149045018,436.70730154501507,436.72000750200823,436.72000750200823,438.2107796719938,Color_Change,,,,,,,,,,,479072,001,2024-04-05_17h56.15.746,smts,2023.2.3,119.94064713525032,2024-04-05 17h57.06.184538 +0200,
,,,,,,,,66,0,66,0,,,,,,,,,,,,,,,,,,,,,,,,,,,,,,,,,,,,,,,,,,,,,,,,,,,,,,,,,,,,,,,,,,,,,,,,,,,,,,479072,001,2024-04-05_17h56.15.746,smts,2023.2.3,119.94064713525032,2024-04-05 17h57.06.184538 +0200,
,,,,,,,,67,0,67,0,0,0,0,0,438.2286392310052,,,,,,,,,,,,,,,,,,,,,,,,,,,,,Correct,,,,,,,,,,,,438.2128503629938,438.2286392310052,438.2286392310052,438.2286392310052,438.2286392310052,438.2286392310052,438.313082364999,438.3131082530017,438.32020581600955,439.20940349501325,439.2094375330198,439.2276930969965,439.2276930969965,439.2276930969965,439.2276930969965,439.2276930969965,440.0204756979947,440.0206078700139,440.0302581890137,440.0302581890137,441.52674825899885,,,,,,,,,,,,479072,001,2024-04-05_17h56.15.746,smts,2023.2.3,119.94064713525032,2024-04-05 17h57.06.184538 +0200,
,,,,,,,,67,0,67,0,,,,,,,,,,,,,,,,,,,,,,,,,,,,,,,,,,,,,,,,,,,,,,,,,,,,,,,,,,,,,,,,,,,,,,,,,,,,,,479072,001,2024-04-05_17h56.15.746,smts,2023.2.3,119.94064713525032,2024-04-05 17h57.06.184538 +0200,
,,,,,,,,68,0,68,0,0,0,0,0,441.54462922300445,,,,,,,,,,,,,,,,,,,,,,,,,,,,,Incorrect,,,,,,,,,,,,441.5288282640104,441.54462922300445,441.54462922300445,441.54462922300445,441.54462922300445,441.54462922300445,441.63022458099294,441.63025021599606,441.63714011301636,442.52606758801267,442.5261032610142,442.5444469159993,442.5444469159993,442.5444469159993,442.5444469159993,442.5444469159993,443.79653902500286,443.79668898001546,443.8060527850175,443.8060527850175,445.3034040100174,,,,,,,,,,,,479072,001,2024-04-05_17h56.15.746,smts,2023.2.3,119.94064713525032,2024-04-05 17h57.06.184538 +0200,
,,,,,,,,68,0,68,0,,,,,,,,,,,,,,,,,,,,,,,,,,,,,,,,,,,,,,,,,,,,,,,,,,,,,,,,,,,,,,,,,,,,,,,,,,,,,,479072,001,2024-04-05_17h56.15.746,smts,2023.2.3,119.94064713525032,2024-04-05 17h57.06.184538 +0200,
,,,,,,,,69,0,69,0,0,0,0,0,445.31801160101895,,,,,,,,,,,,,,,,,,,,,,,,,,,,,Correct,,,,,,,,,,,,445.3050624280004,445.31801160101895,445.31801160101895,445.31801160101895,445.31801160101895,445.31801160101895,445.4068656540185,445.4068862890126,445.41948518299614,446.3030161620118,446.3030442199961,446.32080731200404,446.32080731200404,446.32080731200404,446.32080731200404,446.32080731200404,447.72422225400805,447.72436969401315,447.73642061301507,447.73642061301507,449.2272591890069,,,,,,,,,,,,479072,001,2024-04-05_17h56.15.746,smts,2023.2.3,119.94064713525032,2024-04-05 17h57.06.184538 +0200,
,,,,,,,,69,0,69,0,,,,,,,,,,,,,,,,,,,,,,,,,,,,,,,,,,,,,,,,,,,,,,,,,,,,,,,,,,,,,,,,,,,,,,,,,,,,,,479072,001,2024-04-05_17h56.15.746,smts,2023.2.3,119.94064713525032,2024-04-05 17h57.06.184538 +0200,
,,,,,,,,70,0,70,0,0,0,0,0,449.24615488000563,,,,,,,,,,,,,,,,,,,,,,,,,,,,,Correct,,,,,,,,,,,,449.2293273160176,449.24615488000563,449.24615488000563,449.24615488000563,449.24615488000563,449.24615488000563,449.33618284601835,449.3362048199924,449.3419567900128,450.22599260901916,450.2260264030192,450.2440240540018,450.2440240540018,450.2440240540018,450.2440240540018,450.2440240540018,451.02028548900853,451.02045454099425,451.03094821001287,451.03094821001287,452.52694063601666,,,,,,,,,,,,479072,001,2024-04-05_17h56.15.746,smts,2023.2.3,119.94064713525032,2024-04-05 17h57.06.184538 +0200,
,,,,,,,,70,0,70,0,,,,,,,,,,,,,,,,,,,,,,,,,,,,,,,,,,,,,,,,,,,,,,,,,,,,,,,,,,,,,,,,,,,,,,,,,,,,,,479072,001,2024-04-05_17h56.15.746,smts,2023.2.3,119.94064713525032,2024-04-05 17h57.06.184538 +0200,
,,,,,,,,71,0,71,0,0,0,0,0,452.54434307900374,,,,,,,,,,,,,,,,,,,,,,,,,,,,,Correct,,,,,,,,,,,,452.52903954600333,452.54434307900374,452.54434307900374,452.54434307900374,452.54434307900374,452.54434307900374,452.6231024340086,452.6231297920167,452.6359765290108,453.5244516530074,453.52446551900357,453.53629317699233,453.53629317699233,453.53629317699233,453.53629317699233,453.53629317699233,454.2904577270092,454.2906201830192,454.3032160680159,454.3032160680159,455.79313069200725,Color_Change,,,,,,,,,,,479072,001,2024-04-05_17h56.15.746,smts,2023.2.3,119.94064713525032,2024-04-05 17h57.06.184538 +0200,
,,,,,,,,71,0,71,0,,,,,,,,,,,,,,,,,,,,,,,,,,,,,,,,,,,,,,,,,,,,,,,,,,,,,,,,,,,,,,,,,,,,,,,,,,,,,,479072,001,2024-04-05_17h56.15.746,smts,2023.2.3,119.94064713525032,2024-04-05 17h57.06.184538 +0200,
,,,,,,,,72,0,72,0,0,0,0,0,455.81044976299745,,,,,,,,,,,,,,,,,,,,,,,,,,,,,Correct,,,,,,,,,,,,455.7952287500084,455.81044976299745,455.81044976299745,455.81044976299745,455.81044976299745,455.81044976299745,455.9034892570053,455.9035089520039,455.9091667380126,456.79241273301886,456.79244962200755,456.8117035489995,456.8117035489995,456.8117035489995,456.8117035489995,456.8117035489995,457.6367360840086,457.63687593399663,457.64661781699397,457.64661781699397,459.14308698801324,Color_Change,,,,,,,,,,,479072,001,2024-04-05_17h56.15.746,smts,2023.2.3,119.94064713525032,2024-04-05 17h57.06.184538 +0200,
,,,,,,,,72,0,72,0,,,,,,,,,,,,,,,,,,,,,,,,,,,,,,,,,,,,,,,,,,,,,,,,,,,,,,,,,,,,,,,,,,,,,,,,,,,,,,479072,001,2024-04-05_17h56.15.746,smts,2023.2.3,119.94064713525032,2024-04-05 17h57.06.184538 +0200,
,,,,,,,,73,0,73,0,0,0,0,0,459.1604227850039,,,,,,,,,,,,,,,,,,,,,,,,,,,,,Correct,,,,,,,,,,,,459.1451337450126,459.1604227850039,459.1604227850039,459.1604227850039,459.1604227850039,459.1604227850039,459.24675853701774,459.24678538701846,459.2535759579914,460.1424647849926,460.1425010570092,460.1608852780191,460.1608852780191,460.1608852780191,460.1608852780191,460.1608852780191,460.8868367660034,460.88701126599335,460.8975925350096,460.8975925350096,462.3934984130028,Locat_Change,,,,,,,,,,,479072,001,2024-04-05_17h56.15.746,smts,2023.2.3,119.94064713525032,2024-04-05 17h57.06.184538 +0200,
,,,,,,,,73,0,73,0,,,,,,,,,,,,,,,,,,,,,,,,,,,,,,,,,,,,,,,,,,,,,,,,,,,,,,,,,,,,,,,,,,,,,,,,,,,,,,479072,001,2024-04-05_17h56.15.746,smts,2023.2.3,119.94064713525032,2024-04-05 17h57.06.184538 +0200,
,,,,,,,,74,0,74,0,0,0,0,0,462.4111425279989,,,,,,,,,,,,,,,,,,,,,,,,,,,,,Correct,,,,,,,,,,,,462.3955560839968,462.4111425279989,462.4111425279989,462.4111425279989,462.4111425279989,462.4111425279989,462.49630086199613,462.4963317880174,462.5032739030139,463.3912122500187,463.39122704500915,463.4021560830006,463.4021560830006,463.4021560830006,463.4021560830006,463.4021560830006,464.2865294350195,464.28666523701395,464.29716285600443,464.29716285600443,465.79295783001,Locat_Change,,,,,,,,,,,479072,001,2024-04-05_17h56.15.746,smts,2023.2.3,119.94064713525032,2024-04-05 17h57.06.184538 +0200,
,,,,,,,,74,0,74,0,,,,,,,,,,,,,,,,,,,,,,,,,,,,,,,,,,,,,,,,,,,,,,,,,,,,,,,,,,,,,,,,,,,,,,,,,,,,,,479072,001,2024-04-05_17h56.15.746,smts,2023.2.3,119.94064713525032,2024-04-05 17h57.06.184538 +0200,
,,,,,,,,75,0,75,0,0,0,0,0,465.80990222800756,,,,,,,,,,,,,,,,,,,,,,,,,,,,,Correct,,,,,,,,,,,,465.7947577900195,465.80990222800756,465.80990222800756,465.80990222800756,465.80990222800756,465.80990222800756,465.89578817400616,465.89581367201754,465.90253036201466,466.7926880500163,466.7927251709916,466.81107943100506,466.81107943100506,466.81107943100506,466.81107943100506,466.81107943100506,467.6035420480184,467.6037439230131,467.6148317370098,467.6148317370098,469.1095983640116,Locat_Change,,,,,,,,,,,479072,001,2024-04-05_17h56.15.746,smts,2023.2.3,119.94064713525032,2024-04-05 17h57.06.184538 +0200,
,,,,,,,,75,0,75,0,,,,,,,,,,,,,,,,,,,,,,,,,,,,,,,,,,,,,,,,,,,,,,,,,,,,,,,,,,,,,,,,,,,,,,,,,,,,,,479072,001,2024-04-05_17h56.15.746,smts,2023.2.3,119.94064713525032,2024-04-05 17h57.06.184538 +0200,
,,,,,,,,76,0,76,0,0,0,0,0,469.1272645830177,,,,,,,,,,,,,,,,,,,,,,,,,,,,,Correct,,,,,,,,,,,,469.1117288169917,469.1272645830177,469.1272645830177,469.1272645830177,469.1272645830177,469.1272645830177,469.20444959399174,469.20447152099223,469.2102537100145,470.1027887100063,470.102813666017,470.12064215299324,470.12064215299324,470.12064215299324,470.12064215299324,470.12064215299324,470.9895437170053,470.989694051008,471.0030223079957,471.0030223079957,472.4936224150006,Locat_Change,,,470.12064215299324,,,,,,,,479072,001,2024-04-05_17h56.15.746,smts,2023.2.3,119.94064713525032,2024-04-05 17h57.06.184538 +0200,
,,,,,,,,76,0,76,0,,,,,,,,,,,,,,,,,,,,,,,,,,,,,,,,,,,,,,,,,,,,,,,,,,,,,,,,,,,,,,,,,,,,,,,,,,,,,,479072,001,2024-04-05_17h56.15.746,smts,2023.2.3,119.94064713525032,2024-04-05 17h57.06.184538 +0200,
,,,,,,,,77,0,77,0,0,0,0,0,472.5113139509922,,,,,,,,,,,,,,,,,,,,,,,,,,,,,Correct,,,,,,,,,,,,472.495674433012,472.5113139509922,472.5113139509922,472.5113139509922,472.5113139509922,472.5113139509922,472.59050190399284,472.5905296810088,472.6023749909946,473.4923084480106,473.492343335005,473.51063487899955,473.51063487899955,473.51063487899955,473.51063487899955,473.51063487899955,475.01268906900077,475.01284048400703,475.0228019049973,475.0228019049973,476.51913305799826,,,,,,,,,,,,479072,001,2024-04-05_17h56.15.746,smts,2023.2.3,119.94064713525032,2024-04-05 17h57.06.184538 +0200,
,,,,,,,,77,0,77,0,,,,,,,,,,,,,,,,,,,,,,,,,,,,,,,,,,,,,,,,,,,,,,,,,,,,,,,,,,,,,,,,,,,,,,,,,,,,,,479072,001,2024-04-05_17h56.15.746,smts,2023.2.3,119.94064713525032,2024-04-05 17h57.06.184538 +0200,
,,,,,,,,78,0,78,0,0,0,0,0,476.53637342801085,,,,,,,,,,,,,,,,,,,,,,,,,,,,,Correct,,,,,,,,,,,,476.52130810101517,476.53637342801085,476.53637342801085,476.53637342801085,476.53637342801085,476.53637342801085,476.6198077290028,476.61982658100897,476.6254487830156,477.5191744750191,477.51920190200326,477.53765398901305,477.53765398901305,477.53765398901305,477.53765398901305,477.53765398901305,479.09043177901185,479.09057502201176,479.10291674901964,479.10291674901964,480.59348064800724,,,,,,,,,,,,479072,001,2024-04-05_17h56.15.746,smts,2023.2.3,119.94064713525032,2024-04-05 17h57.06.184538 +0200,
,,,,,,,,78,0,78,0,,,,,,,,,,,,,,,,,,,,,,,,,,,,,,,,,,,,,,,,,,,,,,,,,,,,,,,,,,,,,,,,,,,,,,,,,,,,,,479072,001,2024-04-05_17h56.15.746,smts,2023.2.3,119.94064713525032,2024-04-05 17h57.06.184538 +0200,
,,,,,,,,79,0,79,0,0,0,0,0,480.6111161299923,,,,,,,,,,,,,,,,,,,,,,,,,,,,,Correct,,,,,,,,,,,,480.5955768470012,480.6111161299923,480.6111161299923,480.6111161299923,480.6111161299923,480.6111161299923,480.69727820099797,480.69730415099184,480.7190447660105,481.5921161320002,481.59215018499526,481.610658613994,481.610658613994,481.610658613994,481.610658613994,481.610658613994,482.61290768999606,482.61305664799875,482.6230160270061,482.6230160270061,484.1190594280197,,,,,,,,,,,,479072,001,2024-04-05_17h56.15.746,smts,2023.2.3,119.94064713525032,2024-04-05 17h57.06.184538 +0200,
,,,,,,,,79,0,79,0,,,,,,,,,,,,,,,,,,,,,,,,,,,,,,,,,,,,,,,,,,,,,,,,,,,,,,,,,,,,,,,,,,,,,,,,,,,,,,479072,001,2024-04-05_17h56.15.746,smts,2023.2.3,119.94064713525032,2024-04-05 17h57.06.184538 +0200,
,,,,,,,,,,,,,,,,,,,,,,,,,,,,,,,,,,,,,,,,,,,,,,,,,,,,,,,,,,,,,,,,,,,,,,,,,,,,,,,,,,484.11924371501664,484.125797435001,484.125797435001,488.4528076580027,right,4.321663448004983,None,479072,001,2024-04-05_17h56.15.746,smts,2023.2.3,119.94064713525032,2024-04-05 17h57.06.184538 +0200,
